AccX,AccY,AccZ,VelX,VelY,VelZ,PosX,PosY,PosZ,QuatW,QuatI,QuatJ,QuatK
-0.534656084023728,-0.351216632236614,-1.68020033819849,-0.0102458548257256,-0.00155639149193394,-0.00694170999784665,0,0,0,0.534068166807562,-0.435637702781296,-0.649027372143311,-0.322109384102659
-0.487059360200122,-0.306408032784638,-1.61925081911768,-0.0153405802424636,-0.00484493272183386,-0.0234418437318117,-0.000127932175340946,-3.2006621068839e-05,-0.000151917768648292,0.533930059436833,-0.435625126362279,-0.649094371064683,-0.322220325807935
-0.440692010211152,-0.268454946726976,-1.55472748426918,-0.0199654852901388,-0.00771966552418559,-0.0393146131961303,-0.000304462503003958,-9.48296122989363e-05,-0.000465700053288002,0.533780255596932,-0.435611842123196,-0.64917001253668,-0.322334076014368
-0.395369223199424,-0.240448993524344,-1.48346544097629,-0.0241319396528105,-0.0102646031302358,-0.0545084557697418,-0.000524949627718705,-0.000184750955571043,-0.000934815398117363,0.533625530643999,-0.435596548745933,-0.649250519671349,-0.322448759451834
-0.351876658702025,-0.223717002496865,-1.40452421537275,-0.0278543172579365,-0.0125858510151356,-0.0689512819988712,-0.00078488091227244,-0.0002990032262979,-0.00155211408696043,0.53347387840651,-0.435577057111864,-0.649332066851513,-0.322561800797967
-0.311958283069177,-0.21732079739394,-1.31973337322701,-0.0311596401624113,-0.0147914579193832,-0.0825754478892542,-0.00107995069937418,-0.000435889770970494,-0.00230974773640106,0.533333149202222,-0.435551065010586,-0.649411200846021,-0.322670286741611
-0.277790480031584,-0.21844552774276,-1.23306920090879,-0.0340945321735339,-0.0169707074498604,-0.0953423387073175,-0.0014062215610539,-0.000594700597816712,-0.00319933666938391,0.533209409426135,-0.435516949079452,-0.649485239458035,-0.322771802501546
-0.25101173625459,-0.223200824025541,-1.14908238998507,-0.0367246914505836,-0.0191793571134955,-0.107255974609171,-0.00176031767917449,-0.000775450920633492,-0.00421232823596636,0.533105832708549,-0.435474074468588,-0.649552634320265,-0.322865106268015
-0.231907949244216,-0.227489015416361,-1.07118474300368,-0.0391254380736964,-0.0214332242154987,-0.118360188221499,-0.00213956832679589,-0.000978513827278463,-0.00534040905011971,0.533022455448334,-0.435422620597381,-0.649613116123299,-0.322950464964081
-0.219308711662897,-0.227971013656856,-1.00072515371061,-0.0413676695738508,-0.0237109422656585,-0.128722615652455,-0.00254203386503363,-0.00120423465968425,-0.00657582306948947,0.532956543418291,-0.435363356235189,-0.649667498182236,-0.323029739622986
-0.211082193641533,-0.223018604921825,-0.93713358438209,-0.0435057722959917,-0.0259663082633455,-0.138414787290302,-0.00296640107438284,-0.00145262091232927,-0.00791151008420326,0.532903368552567,-0.435297539810955,-0.649717276547623,-0.32310603859321
-0.204771110330446,-0.213097138999591,-0.878817694608817,-0.0455711870114704,-0.0281473048877463,-0.147497421632641,-0.00341178587092015,-0.00172318897808473,-0.00934107112881798,0.53285733948785,-0.43522680809548,-0.649764262190008,-0.323182742190273
-0.198126880071697,-0.200213578611854,-0.824344625731206,-0.0475718251590999,-0.0302142763805971,-0.156016111181725,-0.003877500931773,-0.00201499688442645,-0.0108586387928898,0.532813139659442,-0.435153077507784,-0.649810230405813,-0.323262465810211
-0.189541199485564,-0.1868918352896,-0.773173406287891,-0.049496313752505,-0.0321502213548981,-0.164006579289205,-0.00436284162633103,-0.00232681937310392,-0.0124587522452445,0.532766689879541,-0.435078414708433,-0.649856420880787,-0.323346655231823
-0.178388986423732,-0.175124546172852,-0.725535073745764,-0.0513221128776703,-0.033960721167004,-0.171502999636758,-0.0048669337594819,-0.00265737408571343,-0.0141363001398743,0.532716072623849,-0.435004575025654,-0.649903092753426,-0.323435582001277
-0.165210225575032,-0.165518636582958,-0.681929688195129,-0.0530262571332829,-0.0356643549855767,-0.178543201393846,-0.00538867560953667,-0.00300549946647633,-0.0158865311450273,0.532662038099515,-0.43493235028437,-0.649949550066533,-0.323528339117453
-0.151576231549337,-0.157102510703412,-0.642667668651032,-0.0545963376145235,-0.0372778786268022,-0.185169066125461,-0.0059267885832757,-0.00337021063453823,-0.0177050924826238,0.532607507114989,-0.434861326773973,-0.649994632706549,-0.323623001799649
-0.139515321521424,-0.14800736455597,-0.607438551839234,-0.0560379435754961,-0.0388038459078928,-0.191422475175297,-0.0064799599892258,-0.0037506192572117,-0.0195880501891276,0.532556286249342,-0.434790231833319,-0.650037342274896,-0.323717021373341
-0.130603444258399,-0.136609720997387,-0.575116879809461,-0.057374685600014,-0.0402273492404532,-0.197338130280925,-0.00704702313510335,-0.00414577523295343,-0.0215318532164087,0.532511680388798,-0.434717552551338,-0.650077324504057,-0.323807708245064
-0.12517177960571,-0.122394145776531,-0.544096061649369,-0.0586397099149534,-0.0415227864791164,-0.202937072935603,-0.00762709511267819,-0.00455452591155128,-0.0235332292324914,0.532475430227263,-0.434642160143922,-0.650114989534883,-0.323892897748278
-0.12209552593126,-0.106073887810966,-0.512788993670104,-0.059862194638257,-0.0426655445518476,-0.208224376159585,-0.00821960463544424,-0.0049754675667061,-0.0255890364779673,0.532447168622067,-0.434563852232898,-0.650151143935427,-0.323971852169759
-0.119193707601304,-0.0891263243063269,-0.479728446082559,-0.0610547890015386,-0.0436419635172277,-0.213189841305732,-0.00882418955364322,-0.00540700510705148,-0.0276961075652939,0.532424566315518,-0.434483658867256,-0.650186296736408,-0.324046001205461
-0.113983778281917,-0.0730878011777212,-0.443528550528847,-0.0622068246265735,-0.0444534520494416,-0.217809004236173,-0.00944049762178378,-0.00584748218488482,-0.0298511017930034,0.532404279741264,-0.434403578294027,-0.650220092659896,-0.324118875075005
-0.104518835357004,-0.0589071123077967,-0.403274203495115,-0.0632854858903869,-0.0451138445216628,-0.222045895953677,-0.0100679591743686,-0.00629531866774035,-0.0320503762939527,0.532383430114182,-0.43432569076298,-0.650251222524673,-0.324195042047665
-0.0900434532046546,-0.0466978505196786,-0.359098401893785,-0.064244445528814,-0.0456422872405939,-0.225860636928006,-0.0107056088314646,-0.00674909932655163,-0.0342899089583611,0.532360829556104,-0.434251246160458,-0.650277736974905,-0.324278687485351
-0.0713469752195964,-0.0359776241423141,-0.31226178803588,-0.0650375458665541,-0.0460560825186975,-0.229220315825039,-0.0113520187884414,-0.00720759117534809,-0.0365653137221263,0.532337392364997,-0.434180309372154,-0.650297454168549,-0.324372595552459
-0.050742798073341,-0.0261321938184553,-0.264580391197694,-0.0656341429286376,-0.046367049513295,-0.232107404668591,-0.0120053772324174,-0.00766970683550805,-0.0388719523245945,0.532315844009981,-0.434111900489022,-0.650308333113961,-0.324477690993222
-0.0314261109181397,-0.0168295224421158,-0.217763967416255,-0.0660311356692138,-0.0465822759993915,-0.234522004409045,-0.0126637036254066,-0.00813445346307148,-0.0412050993699826,0.532299921974134,-0.43404434790968,-0.650308911119334,-0.324593002439636
-0.0162297832321585,-0.00820170685956162,-0.173174386569179,-0.066255563335584,-0.0467078500506935,-0.236479574126356,-0.0133251371204306,-0.00860090409332191,-0.0435601072626596,0.532293261526975,-0.433975722590207,-0.650298744303896,-0.324716028387974
-0.00648100346283398,-0.000699349377248748,-0.131950863101372,-0.0663552654646778,-0.0467527732366712,-0.238008078322093,-0.0139881912644319,-0.00906820720975873,-0.0459325455249019,0.532298473504395,-0.4339041900495,-0.650278576409162,-0.324843442331305
-0.00178622694894875,0.00533313720963657,-0.0953725126911169,-0.0663827498123555,-0.046730022202303,-0.23914757314844,-0.0146518813408171,-0.0095356211869536,-0.0483183237822545,0.532316760542688,-0.433828165721339,-0.650250125022992,-0.324971943373241
-0.000811412443291748,0.0101388305121157,-0.0650556152545263,-0.0663818862049355,-0.0466530802684879,-0.239952591735552,-0.0153157045209036,-0.0100025366993076,-0.0507138246066745,0.532347941633874,-0.433746356876056,-0.650215664604118,-0.325098994828271
-0.00223661208328524,0.0146964881121872,-0.0421856673046519,-0.0663832745231872,-0.04652932158016,-0.240491676095732,-0.0159795303245442,-0.0104684487085508,-0.0531160459458309,0.532390667088296,-0.433657795311666,-0.65017766299819,-0.325223155234856
-0.0051441983751897,0.020329887522691,-0.0260962109833385,-0.0664063267710983,-0.0463546076067793,-0.240835963434556,-0.0166434783310156,-0.0109328683544855,-0.0555226841434824,0.532442692762625,-0.433561947071784,-0.650138535567521,-0.325343974195202
-0.00893709793563841,0.0279859233062515,-0.0137652286497338,-0.0664628814482713,-0.0461134464574282,-0.241038148580106,-0.0173078243721125,-0.0113952086248065,-0.0579320547035557,0.532501020124203,-0.433459062565516,-0.650100393812713,-0.32546179900422
-0.0131600908787719,0.0376607045189626,-0.00103623726411861,-0.0665595155879621,-0.0457856312230958,-0.24111503385706,-0.0179729363572936,-0.0118547040132091,-0.0603428206157415,0.532561801775838,-0.433350738751835,-0.650064781685062,-0.325577708274484
-0.0172994067189907,0.0484418914907174,0.0153444955502917,-0.0666979612715697,-0.0453555361478411,-0.241046370513013,-0.0186392237415913,-0.0123104098500638,-0.0627536276375919,0.532620297034507,-0.433240237540421,-0.650032565571335,-0.325693382584818
-0.0205887596875421,0.0590948473596464,0.0363790149412717,-0.0668735502992212,-0.0448182703583829,-0.240790630907939,-0.0193070812994452,-0.012761278882595,-0.0651628126446966,0.532671272349562,-0.43313211645702,-0.650004058160895,-0.325810696081835
-0.0219747890695016,0.0686190655846584,0.0608623442810357,-0.0670725162386252,-0.044180118698455,-0.240307302059212,-0.0199768116321345,-0.0132062708278791,-0.0675683023095324,0.53270982844051,-0.433031278993177,-0.649979260702949,-0.325931144189172
-0.0203472892410907,0.0764546375101389,0.0866384932099464,-0.0672702748257969,-0.0434551680877747,-0.239572675819141,-0.0206485255874566,-0.0136444472618103,-0.0699677021989242,0.532732300366293,-0.432941902698925,-0.649958084654359,-0.326055353009744
-0.01485604108594,0.0824004268642158,0.112382843042745,-0.0674324396730509,-0.0426613106706966,-0.238580447085262,-0.0213220391599508,-0.0140750296556026,-0.0723584678134462,0.532736884838711,-0.432866611014622,-0.649940526920566,-0.326182801611734
-0.00498612356052258,0.0863364650180374,0.138615296788094,-0.067517798691902,-0.041818044116079,-0.237328334333492,-0.0219967903517756,-0.0144974264295365,-0.07473801172054,0.532723774757732,-0.432806126377894,-0.649926748575538,-0.326311903343511
0.0094528410036292,0.0881217371923056,0.166837211070436,-0.0674816133003052,-0.0409461710098209,-0.235803949741584,-0.0226717874117366,-0.014911247505166,-0.0771036731409153,0.532694811614489,-0.432759520950716,-0.64991688494511,-0.326440618441939
0.028021869606475,0.0879436993378804,0.197528431190499,-0.0672803879428735,-0.0400662617319636,-0.233984999477663,-0.0233455974179525,-0.0153163096688749,-0.0794526178870116,0.53265287863699,-0.432724946234776,-0.649910548771435,-0.326567466814211
0.0493414619283247,0.0865710783567543,0.22912703737075,-0.0668797194808183,-0.0391941057482841,-0.231854600082241,-0.024016397955071,-0.0157126115062762,-0.0817818158848111,0.532601317235018,-0.432700439294475,-0.649906354179888,-0.326692359124757
0.0712500475503028,0.0850165772883509,0.258943732062015,-0.066262910129044,-0.0383365853748522,-0.229417124182462,-0.0246821111031203,-0.0161002649618919,-0.0840881745061346,0.532543600364142,-0.432684332490188,-0.649901842028159,-0.326816734359065
0.091245572076727,0.0838641408645253,0.284735607722592,-0.0654365802265276,-0.0374925996888815,-0.226701605430923,-0.0253406085548981,-0.0164794108872105,-0.0863687681542015,0.532483334325107,-0.432675099337993,-0.649893902511548,-0.32694291941742
0.107013844661471,0.0828796135763799,0.305188106192185,-0.0644314313384554,-0.0366592988214706,-0.223754864808733,-0.025989948612723,-0.0168501703797623,-0.0886210505053998,0.532424346843226,-0.432670882484925,-0.649879617705864,-0.327072935029422
0.116947107147602,0.081349950193886,0.319315677145532,-0.0632977747750288,-0.035838568907413,-0.220635223839429,-0.0266285946432905,-0.0172126597184067,-0.0908430009486406,0.532370311624064,-0.432669296180143,-0.649857217260542,-0.327207470297762
0.1204243481594,0.0788469372807463,0.32629987174708,-0.0620970656941126,-0.0350380023748335,-0.21741002404235,-0.0272555688456362,-0.0175670425748179,-0.0930332271880495,0.532323793018607,-0.432667895875844,-0.649826612058919,-0.327345758372824
0.117879677055531,0.0757424732540805,0.326412919069769,-0.0608916937636568,-0.034265473226953,-0.21414933803565,-0.027870512642925,-0.0179135599528269,-0.0951910239984395,0.532285574425499,-0.432664788945418,-0.649789249084451,-0.327486151523387
0.110604476192749,0.0731629025490988,0.321793806217957,-0.0597354211930342,-0.0335213642527307,-0.210911182356595,-0.0284736482177085,-0.0182524941402253,-0.0973163266004007,0.532255008075222,-0.432658639937406,-0.649747553810626,-0.327626653347171
0.100190439474107,0.0725123995479831,0.315620652309444,-0.0586675948103187,-0.032793405647039,-0.207726988011343,-0.0290656632977252,-0.0185840679897241,-0.0994095174522404,0.532230872569303,-0.432648296158046,-0.649704414944653,-0.327765042854001
0.0881284148433361,0.0748791315849472,0.310074621676699,-0.0577121487343503,-0.032056865896168,-0.204601389588796,-0.0296475620154486,-0.0189083193474402,-0.101471159340241,0.53221177040512,-0.432632790643178,-0.649662862525315,-0.327898863916844
0.0759707141607289,0.0804750972732621,0.305129206436669,-0.0568778012849487,-0.0312805126566706,-0.201528248395614,-0.0302205117655451,-0.0192250062402044,-0.103501807530163,0.532196043876983,-0.432611789526263,-0.649625647794817,-0.328025804124822
0.0654634672676085,0.0882023999321831,0.299457352476741,-0.0561567785734258,-0.030437543075437,-0.198508193548431,-0.030785684664837,-0.0195335965188649,-0.105501989739883,0.532182008490994,-0.432585745439224,-0.649594623571653,-0.328144339747138
0.0581241093256434,0.0957709409063087,0.29247061789159,-0.0555249888860784,-0.0295180942760382,-0.195551431643973,-0.0313440935021345,-0.0198333747056223,-0.107472287865845,0.532168765485735,-0.432555237813182,-0.649570492299915,-0.328253784159476
0.0548167061351544,0.100711684535397,0.285426138744294,-0.0549464330043932,-0.0285360990536233,-0.192664825808178,-0.0318964506115868,-0.0201236456722706,-0.109413369153106,0.532156802644405,-0.432520045045343,-0.64955329665825,-0.328353563759641
0.0557473567352356,0.101666978025126,0.28088250398754,-0.05437976088566,-0.0275246236456144,-0.189836160541903,-0.0324430815810371,-0.0204039492857668,-0.111325874084857,0.532147561841908,-0.432479055969879,-0.649543038057037,-0.328442811284932
0.0604969372523196,0.098926101606827,0.281506379445757,-0.053784687611341,-0.0265220761522483,-0.187027094072121,-0.0329839038235221,-0.0206741827847561,-0.113210190357927,0.53214222781586,-0.43243124403257,-0.649539711811839,-0.328520975493211
0.0679416710562796,0.093995741753862,0.289129374955134,-0.0531286427654168,-0.0255578848402385,-0.184176793247501,-0.0335184704754059,-0.0209345825897185,-0.115066209794525,0.532140818936389,-0.432376726218155,-0.64954289648441,-0.328588711116531
0.076446568678863,0.0886188441906881,0.304024885470746,-0.0523928497623599,-0.0246452298153094,-0.181213899892756,-0.0340460779380448,-0.0211855981629963,-0.116893163260226,0.53214223372073,-0.432317084551157,-0.649551398245379,-0.328648083112275
0.0844168526654329,0.083897735944725,0.324320072734183,-0.0515746808512572,-0.023783064819426,-0.178075053049115,-0.0345659155911129,-0.0214277396361699,-0.118689608024935,0.532144886612735,-0.432255053206991,-0.649563206449715,-0.328702037498563
0.090693550274824,0.0801965147776511,0.346178961964243,-0.0506852770321747,-0.0229630114706077,-0.174725435823007,-0.03507721538053,-0.0216614700176201,-0.120453610469296,0.532147193106583,-0.43219403777553,-0.64957572552167,-0.32875379145048
0.0946045158356664,0.0774751128965762,0.365284951895484,-0.0497449348972411,-0.0221750712370303,-0.171170994201093,-0.0355793664401771,-0.0218871604311583,-0.122183092619417,0.532147710862965,-0.432137647656582,-0.649586118462647,-0.328806541908421
0.0960303944800472,0.0753185318021597,0.378698995695591,-0.0487779085412813,-0.0214115209183302,-0.167453952410522,-0.0360719806573697,-0.0221050933919351,-0.123876217352475,0.53214546733089,-0.432088896109597,-0.64959179585683,-0.328863020440847
0.0954510380604289,0.0730678141454636,0.38555146228391,-0.0478066495741977,-0.0206700070933858,-0.163635578068008,-0.0365549034479471,-0.0223155010319937,-0.125531665004867,0.532140663434095,-0.432049019681587,-0.649591082716145,-0.328924587356687
0.0936997640396371,0.0704132595852403,0.386301398293249,-0.0468470437593162,-0.0199530196295259,-0.159779191712507,-0.0370281719146147,-0.0225186161656082,-0.12714873885377,0.532134757355246,-0.432017019585566,-0.649583699596344,-0.328990747623098
0.0916604826850501,0.067732969594,0.38187613995711,-0.0459063907213115,-0.0192627063884234,-0.155941181968639,-0.0374919390870178,-0.022714694795698,-0.128727340722176,0.532129243330567,-0.431990738072894,-0.64957068569853,-0.329059865211205
0.0903086401514894,0.0657545866252772,0.3738788195807,-0.0449826933027476,-0.0185956865121206,-0.152165285118334,-0.0379463845071381,-0.0229039867602007,-0.13026787305761,0.532124300601409,-0.431968422527761,-0.649553804413211,-0.329130469298518
0.0909983697518641,0.0649642496882065,0.365208583993337,-0.0440623064488496,-0.0179425102353469,-0.148472726047848,-0.0383916095058961,-0.023086677743938,-0.131771063113441,0.532118835032603,-0.431949223879748,-0.649534756681626,-0.329202085740309
0.0955439100573852,0.0652523987559296,0.35969156765405,-0.0431157432454222,-0.0172918448979198,-0.144851103236996,-0.0388274997543675,-0.0232628495196044,-0.133237682259866,0.5321119186212,-0.431932463826958,-0.649514455970871,-0.329275301592
0.105940646116786,0.0659471297605963,0.360653455633126,-0.0420944686601701,-0.0166362651601309,-0.141252256067944,-0.0392535508138954,-0.0234324900698946,-0.13466819905639,0.532104701580609,-0.431916524802022,-0.649492335536241,-0.329351496487315
0.123883382463037,0.0659087833966738,0.369473445494537,-0.0409314967128898,-0.0159774034991382,-0.13760449950969,-0.0396686806407607,-0.023595558413191,-0.136062482834278,0.532102143840254,-0.431897930820056,-0.649465642923739,-0.329432640361598
0.150120596914226,0.0635072571662117,0.384873817916561,-0.0395476250116223,-0.0153307412011174,-0.133835641140019,-0.0400710762493833,-0.0237520991366923,-0.137419683537527,0.532114415076909,-0.431870528522114,-0.649429033879876,-0.329520903457184
0.183708920850248,0.057037495492269,0.403097447102525,-0.0378646256184187,-0.0147284353426186,-0.129898662762308,-0.0404581375025335,-0.0239023950194109,-0.138738355057039,0.532157759088,-0.431824704579813,-0.649374902363467,-0.329617627164315
0.221573719763033,0.0455821191205204,0.419097786437538,-0.0358243606109711,-0.0142157551743484,-0.125790564541991,-0.0408265824336804,-0.0240471159719958,-0.14001680119356,0.532254168039954,-0.431747105278111,-0.649294469418514,-0.329722049111973
0.258895488873073,0.0295695873184729,0.428599731910997,-0.0334081627634094,-0.013840414546947,-0.121554954897633,-0.0411727450505523,-0.0241873968206022,-0.141253528790758,0.532429384794906,-0.43162123360898,-0.649179351151336,-0.329830609470241
0.290549361301271,0.0111721805278737,0.430073779984385,-0.0306470867081564,-0.013637123612509,-0.11726446528554,-0.0414930212979102,-0.0243247845113995,-0.142447625891674,0.532709453369171,-0.43142895916177,-0.649023172607798,-0.329937286322446
0.313021374037442,-0.00514550203300124,0.425786144717958,-0.0276153812270817,-0.0136074081248283,-0.112988043609413,-0.0417843336375864,-0.0244610071700862,-0.143598888436149,0.533116494871169,-0.4311532341251,-0.648822218118579,-0.330035484267122
0.325410832067857,-0.0132292518159324,0.421955760170027,-0.024409368392174,-0.0136996997988666,-0.108752212032357,-0.0420444573856826,-0.0245975427097047,-0.144707589714358,0.533664990285647,-0.430781887993108,-0.648574164231921,-0.33012148765474
0.329005288911944,-0.00798800583573755,0.427683487218789,-0.0211234359828938,-0.0138062039919186,-0.104506893742797,-0.042272121407558,-0.0247350722286586,-0.145773885243233,0.534360510655937,-0.430310734568673,-0.648275484847933,-0.330197534987275
0.32643577016491,0.011650018512059,0.451904151589467,-0.0178323788831283,-0.0137883118333306,-0.10011183349614,-0.0424669004818881,-0.0248730448077849,-0.146796978879428,0.535201796217536,-0.429744102994951,-0.647919160887134,-0.330272318279779
0.320886714896393,0.0419669044912914,0.499284606901637,-0.0145819146534406,-0.0135206451231075,-0.0953587676510689,-0.0426289719495709,-0.025009589592567,-0.147774331885164,0.536184573645336,-0.429093227955357,-0.647493542936615,-0.330359223517389
0.314627621749894,0.0756544885867115,0.567441888251383,-0.0113904911658279,-0.0129329560625112,-0.090028013122688,-0.0427588339786673,-0.0251418575984951,-0.148701265789033,0.537304705917949,-0.428374029569387,-0.646982562496264,-0.330473762369542
0.306796526975348,0.103966562876276,0.64699325910065,-0.0082695186178205,-0.0120352687099899,-0.0839587153333121,-0.0428571340275855,-0.0252666987223576,-0.149571199431313,0.538559484430212,-0.427604707871902,-0.646367848163068,-0.330630458967553
0.292025695225659,0.119321862541352,0.724483874707267,-0.00526155570243426,-0.0109192444876954,-0.0771042076116567,-0.0429247893991868,-0.0253814712883461,-0.150376514046038,0.539946547415594,-0.426803383134651,-0.64563300168781,-0.330839273984187
0.261890740683856,0.117622996547782,0.78693292291921,-0.00247812171850548,-0.0097349380970434,-0.0695500015709085,-0.0429634877862915,-0.0254847422012698,-0.151109785091951,0.541460310888583,-0.425986729585362,-0.644769111181386,-0.33110244821803
0.209461914214737,0.0998927369364606,0.825319751012519,-0.000107506639631307,-0.00864777733441584,-0.0614916161486341,-0.0429764159280822,-0.0255766557784271,-0.151764993180548,0.543087091089689,-0.425170262068868,-0.643779579030289,-0.331412904648587
0.134226082160227,0.0729271438911488,0.83514183002068,0.00162478514662472,-0.00778409583507145,-0.0531921861908524,-0.0429688295355472,-0.0256588151442745,-0.152338412192246,0.544801401777184,-0.424369862699561,-0.642681956684766,-0.331755263418399
0.0434539330268965,0.0480167777354396,0.815617065916287,0.00252703702694154,-0.00717979413173216,-0.0449412696585518,-0.0429480704246794,-0.0257336345941085,-0.152829079471493,0.546565961891035,-0.42360312445735,-0.641505573760055,-0.332109381208783
-0.0508567467780494,0.0374183112441685,0.770160314712492,0.00250387476256698,-0.00675303659162777,-0.0370152607027921,-0.0429229158657318,-0.0258032987477253,-0.1532388621233,0.548336034649151,-0.422889197264321,-0.64028603829383,-0.332454672261312
-0.136555941596757,0.0496088541352179,0.70736130251908,0.00158066312507416,-0.0063183186695245,-0.0296305305640185,-0.0429024931762936,-0.0258686555240311,-0.153572091079634,0.55006588431445,-0.422247517117695,-0.639058839157202,-0.332773732882198
-0.204496846267742,0.0851752171718477,0.639064155271194,-0.000110749009867126,-0.00564481621778282,-0.0229012812224513,-0.0428951436057176,-0.0259284711984676,-0.153834750138566,0.551714197135992,-0.421696936146317,-0.637853679987588,-0.33305528317336
-0.250069860423409,0.135624221077073,0.575124118475152,-0.00236973073894167,-0.00454123693133188,-0.0168332178011038,-0.0429075460044616,-0.0259794014642132,-0.154033422633684,0.553247141342221,-0.421255610325102,-0.636690438071419,-0.333296560790405
-0.274086546111197,0.186573874019316,0.519266796580361,-0.00497666096723349,-0.00293066436064359,-0.0113641411732105,-0.0429442779629925,-0.0260167609706731,-0.154174409428555,0.554639594805985,-0.42094047356751,-0.635577725605642,-0.333504111369218
-0.282221350939318,0.224278795261082,0.46991502595305,-0.00774434864810486,-0.000876818919035252,-0.00642111000792764,-0.0430078830110692,-0.0260357983870715,-0.154263335684461,0.55587501864609,-0.420765510043134,-0.634514831321772,-0.333691890875482
-0.282076128092819,0.241591833713658,0.424947365578872,-0.0105519842388843,0.00145211632104479,-0.00194967599765225,-0.0430993646755041,-0.0260329219000614,-0.154305189614489,0.556944145562304,-0.420739475012133,-0.633496120781161,-0.333877489276547
-0.279602435102605,0.239459761119821,0.385781976872643,-0.0133465252504802,0.00385695639041853,0.0021010927672211,-0.0432188572229509,-0.0260063765365041,-0.154304432530641,0.557843333918789,-0.420863987697074,-0.632515724059252,-0.334078100868475
-0.277249330177665,0.224024133179848,0.356952724444603,-0.0161169322725004,0.00617395795712322,0.00581188832642311,-0.0433661745105659,-0.0259562219647664,-0.154264867625173,0.558573698284578,-0.421132206272796,-0.631571059379181,-0.334306873065984
-0.274521426646695,0.202121102011701,0.34232679024369,-0.018861934252241,0.0083042662282873,0.00930540795248035,-0.0435410688431896,-0.0258838308438393,-0.154189281143778,0.55914111706405,-0.421528506736224,-0.630664452585018,-0.334570287776328
-0.270205208045871,0.177272114536712,0.3422726274134,-0.0215717156213226,0.0102008144062357,0.0127255270933816,-0.0437432370925574,-0.0257913054406667,-0.154079126468549,0.559556419337329,-0.422029845096032,-0.629802540150481,-0.334867412338986
-0.264267024558323,0.148067301616778,0.353643728809401,-0.0242302249799624,0.0118270935822095,0.0162022309271114,-0.0439722467955638,-0.0256811659007245,-0.153934487678447,0.559835088309011,-0.422608442488958,-0.628994317718799,-0.335190880712113
-0.257638503634437,0.109860503375684,0.371560310643327,-0.026825900816545,0.0131163147023782,0.0198253731769908,-0.0442275274245463,-0.0255564488593016,-0.153754349657926,0.5599960226657,-0.423234643781762,-0.628249237411539,-0.335529114375104
-0.250614547058946,0.0574560420853744,0.391583313405472,-0.0293533142656307,0.0139524795248898,0.0236382133498505,-0.0445084234999572,-0.0254211048881652,-0.153537031725292,0.560060171880265,-0.423878325382932,-0.627576381411512,-0.335868507958757
-0.242025307462454,-0.0137584740873046,0.410842427680218,-0.0318026617338565,0.0141705494600865,0.0276474641078948,-0.0448142033799546,-0.0252804897432403,-0.153280603338003,0.560051443593189,-0.424506755749566,-0.62698562653791,-0.336192532586653
-0.229787465697405,-0.107606507503452,0.427164734503675,-0.0341478737952746,0.0135633066473391,0.03183462197143,-0.0451439560576003,-0.0251418204627032,-0.152983192907606,0.56000100410073,-0.425078612393853,-0.626490991417528,-0.336475981853348
-0.211799060578011,-0.225920120710266,0.436984700601984,-0.0363419546222704,0.0118952556014768,0.0361524911995741,-0.045496405199688,-0.0250145276514591,-0.152643257341751,0.559952637936673,-0.425537417586562,-0.626114455836786,-0.336677349540666
-0.186530790509603,-0.365969039983518,0.434456347749671,-0.0383197520733273,0.00893539189321424,0.0405068184939481,-0.045869713733166,-0.0249103744139857,-0.152259960793284,0.559965175608077,-0.425809018418885,-0.625887491338659,-0.336735103791038
-0.153426018618843,-0.517679016605465,0.413914330988923,-0.0400056843145883,0.00451673370547567,0.0447457939402569,-0.0462613409151056,-0.0248431137859922,-0.151833697731113,0.56010976192528,-0.42580525755364,-0.625848861650888,-0.336571150881907
-0.113167880590516,-0.661784232299414,0.374949243505117,-0.0413248020062539,-0.00138100044384238,0.0486872338653429,-0.0466679933467098,-0.0248274351196841,-0.151366532592085,0.560462097252428,-0.425433126468691,-0.626039288789698,-0.336100730939661
-0.0675215159294842,-0.770623780753497,0.326299165115176,-0.0422143971844727,-0.00854345841390059,0.0521905979610601,-0.0470856893426634,-0.0248770574139728,-0.150862143432953,0.561089986294721,-0.424608947168625,-0.626494054524967,-0.335246877552961
-0.0183742407748234,-0.814001151789691,0.285379435686109,-0.042630024163613,-0.0164670009814102,0.0552461130176823,-0.0475099114494039,-0.0250021097109493,-0.150324959878059,0.562037401550844,-0.423276816860759,-0.627234790784982,-0.333956902601397
0.0335051749857835,-0.76891320368722,0.273776181381472,-0.042540517688177,-0.0243819906635884,0.058039013155636,-0.0479357641586628,-0.0252063546691743,-0.149758534247192,0.563309518887009,-0.421426824925752,-0.628263104152907,-0.332215726786737
0.0886084675878815,-0.628025266524021,0.310862104994605,-0.0419160976709275,-0.0313671009194382,0.0609593266401322,-0.0483580472354583,-0.0254851001270895,-0.149163542548214,0.564863957625055,-0.419107225291373,-0.629558576057732,-0.330051272375804
0.147414800234871,-0.404067126356043,0.407248767489425,-0.0407221295274325,-0.0365279807886322,0.0645470030551681,-0.0487712383714501,-0.0258245755356298,-0.148536010899737,0.566610268032948,-0.416428006837363,-0.631081094150558,-0.327531940254424
0.208921304925916,-0.129894965542819,0.559808894982242,-0.0389265971972474,-0.0391982091529202,0.0693794134201422,-0.0491694820050735,-0.0262032064853376,-0.147866378817361,0.568417445319673,-0.413555108375286,-0.632775779658321,-0.324759284502795
0.269857982047038,0.147217735023246,0.750871090715616,-0.0365188489580014,-0.0391120132103117,0.0759299354012473,-0.0495467092358498,-0.0265947575971537,-0.147139832073254,0.570129326085893,-0.410693653971504,-0.634579002925215,-0.321858296725159
0.324494120927725,0.377192859393341,0.953405476594288,-0.0335332366387464,-0.0364903781430224,0.0844484402904126,-0.0498969696638335,-0.0269727695539204,-0.146337940194795,0.571586939393227,-0.40806010942686,-0.636424384280937,-0.318966018413018
0.365610345734939,0.52008098530074,1.14033638971466,-0.0300688625010518,-0.0320044268243457,0.0949142716745731,-0.0502149801595325,-0.0273152435787572,-0.14544112663497,0.572653760211018,-0.40584878165729,-0.638247992037148,-0.31621818101435
0.387706702730009,0.553841095038583,1.29194270539017,-0.0262884254543459,-0.0266352343274427,0.107072789202713,-0.0504967665993095,-0.0276084418845162,-0.144431191330584,0.573237252111596,-0.404202157104797,-0.639993130141921,-0.313733106883099
0.390666587848211,0.475632575892459,1.39636907915201,-0.0223827071970736,-0.0214882838775812,0.12051147017804,-0.0507401222625666,-0.0278490594755413,-0.14329327003368,0.573301641272167,-0.403191963772753,-0.641616218898097,-0.311592837065648
0.380069576170814,0.300744740108978,1.4457468910571,-0.0185151745725973,-0.0176068152023676,0.134719172081701,-0.050944611671415,-0.028044534970941,-0.142017116822382,0.572869874965348,-0.402813780490615,-0.64309294531005,-0.30982677143283
0.363642313161143,0.0601679215236872,1.43383412459356,-0.0147827633215563,-0.015802669798998,0.14911419921257,-0.0511111013608857,-0.0282115823959479,-0.14059794996591,0.572014558615588,-0.402996644547115,-0.644420267522315,-0.308408119254421
0.346549385733083,-0.205176489512614,1.35688030643633,-0.0112179530227039,-0.0165281305437362,0.163064893420335,-0.051241104942607,-0.0283732363976615,-0.139037054502746,0.570841102592329,-0.403624352206758,-0.645611928185091,-0.307267076143831
0.32807215414789,-0.452022552274269,1.21673195328746,-0.00783099351891787,-0.0198145436574643,0.17593007677157,-0.0513363496753151,-0.0285549497686675,-0.137342079651786,0.569468646422865,-0.404560247739957,-0.646690271963539,-0.306313824104658
0.301648703601739,-0.641880851887983,1.0244267008177,-0.00466853742578851,-0.0252844785830692,0.187132992094712,-0.0513988473300387,-0.0287804448798702,-0.135526764307455,0.568011918698443,-0.40566990718929,-0.647678293902851,-0.305462295913322
0.258738846392757,-0.74713420027482,0.80061363157416,-0.00185274787143482,-0.0322299717486769,0.196255315809287,-0.0514314537565248,-0.0290680171315289,-0.133609822767935,0.566565426602015,-0.406839768402995,-0.648594243690966,-0.304648202482829
0.193899619669113,-0.754778319797574,0.570398992588987,0.000424296263255734,-0.0397399522538325,0.203107500982718,-0.0514385960145657,-0.0294278667515415,-0.131613008683975,0.56519231146218,-0.40798983401884,-0.649449718574177,-0.303837142965175
0.107338449736654,-0.666966183288787,0.355414616814555,0.00194433841466578,-0.046849092674058,0.207733691082352,-0.0514267528411761,-0.0298608119761809,-0.129558802723649,0.563919354503571,-0.409079487949553,-0.650250877305395,-0.303022657104664
0.00413531477429968,-0.499569587487411,0.168837775907462,0.00251555904160175,-0.0526821894327326,0.210352075098577,-0.0514044533538947,-0.0303584683867149,-0.127468373892745,0.562737336262176,-0.410107249626719,-0.651001490190341,-0.302218123133135
-0.107480373608178,-0.279843770219351,0.015802959270764,0.00201268555181357,-0.0565796741260601,0.211272400827084,-0.0513818121309276,-0.0309047777045089,-0.125360251513116,0.561605413505995,-0.411105576570715,-0.65170610583706,-0.301447700352672
-0.217184110789729,-0.0425786649853217,-0.103452168732546,0.000403214934205238,-0.0581922042068771,0.210831276832391,-0.0513697326284976,-0.0314786370961736,-0.123249733124819,0.560459107311547,-0.412131314428528,-0.652371749218964,-0.300739870186757
-0.313823041075182,0.17625376424815,-0.190935796068851,-0.00223796902073811,-0.0575242466153566,0.209356459061,-0.0513789063989302,-0.0320572193502847,-0.121148794445352,0.559221887260064,-0.413252456022507,-0.653007672553365,-0.300123754453218
-0.387716783948307,0.347328785526265,-0.249110331267031,-0.00573181634147435,-0.0549067517712782,0.207153350476936,-0.0514187553257413,-0.0326193743422179,-0.119066245397662,0.557819056773888,-0.414533263667549,-0.653623939720986,-0.299626131431554
-0.432918741791771,0.453735828104498,-0.279648623037327,-0.00982114216579353,-0.0509018466079181,0.20450667775803,-0.0514965201182776,-0.0331484173341139,-0.117007945256488,0.556190813525997,-0.416021444497959,-0.65423006020295,-0.29926738043757
-0.448112572746794,0.491993018524863,-0.283797703707643,-0.0142124469341052,-0.0461736202795649,0.201686568176921,-0.0516166880637771,-0.0336337946685513,-0.114976979026813,0.554300966532057,-0.417740994450914,-0.654834492301595,-0.299056328722369
-0.436312980963765,0.469492777904177,-0.264271207007539,-0.0186207228982767,-0.0413666092022134,0.198943345675961,-0.051780853912939,-0.0340714958159602,-0.112973829457548,0.55213918978455,-0.419692323531716,-0.655445023575869,-0.298985768461039
-0.40418372506226,0.401195623803698,-0.226425367774413,-0.0228093546240257,-0.0370135850984676,0.196486984854667,-0.0519880043005505,-0.0344633967874636,-0.110996677804895,0.549716953336876,-0.421858368532727,-0.656069493285875,-0.299031115592583
-0.360918245569316,0.306193249243053,-0.177206844732185,-0.0266210126728023,-0.0334770586380275,0.19446594584475,-0.0522351561370347,-0.0348158500061461,-0.109041913151398,0.547059344396845,-0.424213239526732,-0.65671625802065,-0.299153735677301
-0.315953682229682,0.203105079673735,-0.122780295380194,-0.0299915205074161,-0.0309309848982372,0.192963132196804,-0.0525182188029358,-0.0351378902238274,-0.10710476776119,0.544196405031754,-0.426729380383969,-0.657394144190811,-0.299307948192593
-0.276086625440472,0.105403500050028,-0.0668708103596943,-0.0329378702413857,-0.0293888599044121,0.19201199872072,-0.0528328657566798,-0.0354394894478406,-0.105179892106603,0.541157578406281,-0.429380319475747,-0.658112233930874,-0.299448332990634
-0.243955669736945,0.0196191842786938,-0.0105717884426221,-0.0355242299128915,-0.0287641643875621,0.191621907779324,-0.0531751762574512,-0.0357302545693005,-0.103261722574103,0.537970142187018,-0.432139576757708,-0.658879632431029,-0.299534876571159
-0.218085361873798,-0.0534659770868797,0.0471867338155578,-0.0378205832665641,-0.0289338162563967,0.191802104558805,-0.0535419003233484,-0.0360187444725203,-0.101344602512412,0.534659261603921,-0.43497970828796,-0.659704412318818,-0.29953666841633
-0.193109597042802,-0.116972925591352,0.10860166781293,-0.0398627062567659,-0.0297864286745815,0.192578168619563,-0.0539303167709651,-0.0363123456971752,-0.09942270114652,0.531247597616281,-0.437874256025062,-0.660591144370588,-0.299435244947192
-0.160907257962669,-0.175568691827721,0.174821487689205,-0.041618938727412,-0.0312495546664705,0.19399240644969,-0.054337724995886,-0.0366175256138804,-0.0974898482711738,0.52775478066836,-0.440801576072971,-0.661537861819759,-0.299226535240807
-0.114031132733085,-0.231904449332901,0.243731822888,-0.0429797788765096,-0.0332873382770673,0.196082295055191,-0.0547607185839056,-0.0369402100785981,-0.0955394747636494,0.524196988536549,-0.443748623510203,-0.66253390773475,-0.298920553732485
-0.049660177583978,-0.28410662176261,0.309377039573492,-0.0437843836237137,-0.0358678115373385,0.198844961420115,-0.0551945393964067,-0.0372859858276702,-0.0935648384812729,0.520585646240857,-0.44671394934026,-0.663559356456802,-0.298540136081319
0.028933413165429,-0.326755731330692,0.362510141072642,-0.0438741656414252,-0.0389225412075987,0.202201519375961,-0.0556328321427324,-0.0376599375913948,-0.0915596060772925,0.516925562327161,-0.44970886175338,-0.664585918113576,-0.298119875416522
0.113867799512958,-0.353955867467335,0.390926567957959,-0.0431463077736521,-0.0423265171063825,0.20596582497373,-0.0560679345098078,-0.0380661828829648,-0.089518769355544,0.513214743001744,-0.452755035849592,-0.6655791441066,-0.297704397026336
0.195418277729499,-0.361487502689968,0.380131584990363,-0.0415860255830586,-0.0459041518619626,0.209818237791087,-0.0564915961765913,-0.0385073362278065,-0.0874398490417199,0.509447217523347,-0.455878378515489,-0.666501683532568,-0.297344820718406
0.264751729237217,-0.347305748822461,0.316028577218951,-0.0392713237438438,-0.0494485360243184,0.21329616065475,-0.0568958829232258,-0.0389840996672379,-0.0853242770494907,0.505617626220046,-0.459101455665007,-0.66731702813024,-0.297093677868283
0.316148796757426,-0.31163647148736,0.189937944383897,-0.0363529693094894,-0.0527436650306612,0.21582311531538,-0.0572740043884925,-0.0394950606725128,-0.0831786806696401,0.50172503994205,-0.462437630439395,-0.667993094427792,-0.296999407483463
0.348524649686073,-0.25764856675389,0.00376176922169885,-0.0330157502728907,-0.0555905081266611,0.216788735936023,-0.0576208479864044,-0.0400367315382994,-0.0810156214133831,0.497774193994958,-0.465888931451851,-0.668504997728837,-0.297101705405555
0.366505532671322,-0.192237720964325,-0.228193096944879,-0.0294267475567225,-0.0578403574700458,0.215663701350023,-0.0579330604755525,-0.0406038858662829,-0.0788533592269528,0.493773988574054,-0.469447545661834,-0.668836611682391,-0.297428709026163
0.381139851352876,-0.124973880428707,-0.481853689897491,-0.0256746688322203,-0.0594268333818046,0.212110589468427,-0.0582085675574972,-0.0411902218205422,-0.0767144877728606,0.489734498272568,-0.473098915574248,-0.668981067318553,-0.297996424229415
0.409373749900478,-0.063964801224908,-0.727192971358177,-0.0217082490215723,-0.0603719446948664,0.206062478214765,-0.0584454821467661,-0.0417892157109255,-0.0746236224344446,0.485664054686517,-0.476824145411234,-0.668940347559806,-0.298810929761387
0.471341664151785,-0.0108589465029908,-0.929773970705111,-0.0172908201469298,-0.0607464813382995,0.197774765557064,-0.0586404774926087,-0.0423948078410914,-0.0726044362155855,0.48156771513242,-0.480600526909245,-0.668723641986184,-0.299873906709854
0.585194182048628,0.0407703677237566,-1.05174479233615,-0.0119942891115465,-0.0605973421369893,0.187864293794473,-0.058786903038901,-0.0430015269584678,-0.0706762409188278,0.477448187322229,-0.484400416133227,-0.668344048509159,-0.301190468134469
0.760598876990216,0.101692107224219,-1.05639673589163,-0.00525147201197107,-0.0598854476670431,0.17732070820595,-0.0588731318445186,-0.043603940907488,-0.0688503159088257,0.473308764075744,-0.488190338903945,-0.667813844102177,-0.302776611506597
0.994723175112541,0.179813385069539,-0.916010184753128,0.00353899005292392,-0.058478338110368,0.167455795655342,-0.0588816942543139,-0.044195759836375,-0.0671264333895192,0.469156188460658,-0.491932360166819,-0.667139276791929,-0.304664092421986
1.27398115875111,0.273378726682056,-0.619670670472723,0.0148963635266234,-0.0562127954564037,0.159774513431829,-0.0587895174864161,-0.0447692155042089,-0.0654902818440834,0.465003571482944,-0.49558649072226,-0.666315988849823,-0.306901794919457
1.58032336497152,0.368459085997081,-0.179459711125991,0.0291817379496177,-0.0530040242978016,0.155775983576451,-0.0585691269790349,-0.0453152996029799,-0.063912529359042,0.460876793864473,-0.499109779721094,-0.665326040757314,-0.309553336525648
1.89891320009597,0.442251378795848,0.366196582908356,0.0465917725793364,-0.0489508898786307,0.156706789987979,-0.0581902594263901,-0.0458250741738621,-0.0623501154912198,0.456826056832518,-0.502449572165905,-0.664136793483221,-0.312692661843828
2.22382041188549,0.469649874380799,0.954442934734526,0.0672192924436249,-0.0443918015175411,0.163307109628809,-0.0576212041012753,-0.0462917876308429,-0.0607500459931359,0.452940202401328,-0.505532525855229,-0.662701033529366,-0.316400661361803
2.55774063414661,0.429704842100087,1.50719231095415,0.0911409494781667,-0.0398954458399303,0.175612407909868,-0.0568294028916664,-0.0467132238676303,-0.0590554484054425,0.449360502194293,-0.508252741723853,-0.660958274470633,-0.320762293617381
2.90495178225964,0.310990331508647,1.94618022401314,0.118468263364579,-0.0361923878766803,0.19287639263732,-0.0557813568274526,-0.0470936630362133,-0.0572130044027066,0.44629079088644,-0.510462911878535,-0.658838122726144,-0.325859591863019
3.26135900219298,0.116839194440195,2.20782528794622,0.149313669091223,-0.0340536581517297,0.213643542249733,-0.0544424471651736,-0.0474448932663554,-0.0551804047282713,0.443999903110137,-0.511972728412931,-0.656266174789287,-0.331757018353863
3.60617328223708,-0.128019166320354,2.25288728663466,0.183665182317755,-0.0341099759159242,0.235944227175253,-0.0527775529081287,-0.0477857114366937,-0.0529324658811464,0.442811571809727,-0.512557594141328,-0.653171784748541,-0.338480788476774
3.89930290722811,-0.371525688634202,2.07094774259748,0.221206415069462,-0.0366081180954906,0.257560524374029,-0.0507531949211927,-0.0481393019067507,-0.0504649421234,0.443077477003267,-0.511978146931224,-0.649496640303702,-0.345998324665732
4.08900151067076,-0.536573583708638,1.68059458295163,0.261161788963338,-0.0411490323619985,0.276315358054391,-0.0483413539010287,-0.0485280876590382,-0.0477955627112579,0.445133666970771,-0.510007500422691,-0.645203474432243,-0.354204523718029
4.13017395824835,-0.537307985133625,1.12498173904606,0.302271518112314,-0.0465188581110034,0.290340361716995,-0.0455241873656504,-0.0489664271114032,-0.0449622841124009,0.449248091079794,-0.506459913855297,-0.640284217547235,-0.362919590376121
4.00510353562468,-0.30759907639532,0.463724238858419,0.342961757386061,-0.0507438113234418,0.298281013659133,-0.0422980209881585,-0.0494527404585754,-0.0420191772355203,0.455571485058497,-0.501214358184495,-0.6347666243677,-0.371900688007075
3.73490930442351,0.167298127278631,-0.236716773523062,0.381675673390683,-0.0514457339738189,0.299413173038426,-0.0386748338342748,-0.0499636881850617,-0.0390307063020325,0.464103964141629,-0.494228358361985,-0.628718376160942,-0.380866175626545
3.37556239747075,0.832443027632213,-0.912015310715353,0.417241883704535,-0.0464474461040584,0.293666634669849,-0.0346802460487987,-0.0504531540854511,-0.0360653072634911,0.474685206561319,-0.485541541762058,-0.622244972346632,-0.389531205790373
2.99941177148407,1.57958994327094,-1.50657470821452,0.449130606353691,-0.0343876991543363,0.281570806627816,-0.0303483835985076,-0.0508573298117431,-0.0331891200570028,0.486995363211072,-0.475289303261968,-0.615462449493158,-0.397670174490809
2.67012208010006,2.29017502822683,-1.9784995735373,0.477492127415993,-0.0150392922016411,0.264142557271672,-0.0257152699296592,-0.0511044647685229,-0.0304605532375054,0.500539667858292,-0.463764004214837,-0.608422570022755,-0.40522211882107
2.42708884420568,2.85651913214667,-2.30413367041133,0.502992033841902,0.0106937606954328,0.242726513104545,-0.0208128491233697,-0.051126192426054,-0.0279262078856243,0.514649143645551,-0.451489035374396,-0.601034133379485,-0.412373471981854
2.28352197139446,3.18032466525207,-2.48084955157639,0.526558939724284,0.0408775617776329,0.218798719047222,-0.0156650942555388,-0.0508683358136887,-0.0256185817248654,0.528585997277416,-0.43917534083796,-0.593079944571006,-0.41949736927632
2.22108559990697,3.20063972167103,-2.52774673176751,0.549095829385173,0.0727819658074547,0.193752859683118,-0.0102868204099915,-0.0503000381757632,-0.0235558238312137,0.541739557716275,-0.427520237408343,-0.584336946776913,-0.426960221616866
2.18222895930935,2.93034164615324,-2.48148789154833,0.571126253985635,0.103436454741782,0.168703808619155,-0.00468570999313743,-0.049418946073017,-0.0217435404897024,0.553769640693931,-0.416998262009355,-0.574687829375266,-0.434954633605434
2.08502305239825,2.44029865925231,-2.38294835198525,0.592476365848555,0.130289238364017,0.144378749454103,0.00113230310603352,-0.0482503176074881,-0.0201781276993361,0.564615202463986,-0.407786814408119,-0.564150588727843,-0.443456537193284
1.85784953840107,1.81486250913039,-2.2620862150803,0.612204580606932,0.151564626301136,0.121150698671391,0.00715570783831096,-0.0468410482841623,-0.0188504804587086,0.57442064673831,-0.399805924503083,-0.552857243918189,-0.452266526707605
1.46300585812803,1.13414392104995,-2.13329727227035,0.628822709393959,0.166309240547244,0.0991709032872535,0.0133608442883154,-0.0452516789499204,-0.0177488724489154,0.583449542105374,-0.392792376213713,-0.541027059138502,-0.461075375926061
0.898208603434046,0.476139301202368,-2.00087282209086,0.640642633506151,0.174360238753712,0.0784971748680632,0.019708171002816,-0.0435483315534156,-0.0168605320581388,0.592003534287423,-0.386384001973638,-0.528935865575754,-0.469538143836753
0.189348561268136,-0.0924468735521718,-1.86547275222082,0.646094271134043,0.17627828298717,0.0591625690491206,0.0261418555260169,-0.0417951389447112,-0.0161722333385529,0.600350579849768,-0.380208695153121,-0.516876684130206,-0.477345810504892
-0.618451376199738,-0.529704132798726,-1.72602929688199,0.643962608863766,0.173167110050622,0.0412021808562223,0.032592139926006,-0.0400479119795222,-0.0156704095890262,0.608679620965732,-0.373950320595794,-0.505126366518719,-0.484270204116372
-1.47295405236285,-0.816942814229198,-1.57878876750723,0.633519433525334,0.166433457410688,0.024675212586892,0.0389795501379515,-0.0383499091422157,-0.0153410226218106,0.617089182890511,-0.367377129726261,-0.493926213740193,-0.490175356677477
-2.32683908575813,-0.951028527474388,-1.41854123638095,0.614534319639111,0.157593182797377,0.0096856846200668,0.0452198189037737,-0.0367297759411754,-0.0151692181357758,0.625596395076527,-0.360349319693244,-0.483467090045272,-0.495012213088754
-3.14534307358559,-0.944557860449597,-1.24336299481184,0.587187260646773,0.148114832952963,-0.00362671448328137,0.0512284268052031,-0.0352012358624237,-0.0151389232850919,0.634153227252909,-0.352818880006141,-0.473876664028392,-0.498808008722048
-3.90904993445594,-0.826519018999936,-1.05909661915881,0.551929147410947,0.139259030650922,-0.0151418905005188,0.0569240088454917,-0.0337643665444042,-0.0152327663100109,0.642666987574559,-0.34481747075178,-0.465219962029962,-0.501647726871185
-4.61225807029529,-0.634865775342639,-0.879517950614619,0.509336459191572,0.131951688774415,-0.0248378412967702,0.0622303368785043,-0.0324083129472775,-0.0154326649689973,0.651021203365458,-0.336433612994531,-0.457516193821737,-0.503649430861296
-5.25748962890739,-0.406761635398687,-0.721592290480556,0.46000157249994,0.126743133815915,-0.0328462704496303,0.0670770270369619,-0.0311148388343259,-0.0157210855277293,0.659090739833543,-0.327791895963379,-0.450760078484058,-0.5049427900777
-5.84869978777269,-0.173415688350143,-0.59879475999281,0.40448447722092,0.123841829292377,-0.0394510836493814,0.0713994572855662,-0.0298619140187844,-0.0160825722982244,0.666750672363343,-0.319040602276947,-0.444937047542934,-0.505655672098683
-6.38652064835704,0.0415336564350138,-0.516201894060239,0.343322226844653,0.123182001228008,-0.0450289448670308,0.075138490805894,-0.0286267948661825,-0.0165049724408064,0.673883118473974,-0.310342560179769,-0.440031406021708,-0.505906512797985
-6.8660421743713,0.223531612040955,-0.468937864925467,0.277073264535392,0.124506909665594,-0.0499575216093436,0.0782404682627943,-0.0273883503117145,-0.0169799047731883,0.680384404476206,-0.301863176940007,-0.436030986513852,-0.505799034551274
-7.27570689079699,0.368954382975593,-0.443565047152594,0.206378371013932,0.127468921735883,-0.0545229141171181,0.0806577264405409,-0.0261284711547071,-0.0175023069518206,0.686171539031466,-0.29375565086143,-0.43293012034777,-0.505418388571126
-7.59785881070924,0.485374810472905,-0.421360186638661,0.132024394310782,0.131740149798332,-0.0588504182334586,0.0823497402671645,-0.024832425797036,-0.0180691736135735,0.691186133138303,-0.286148007097037,-0.430729590397935,-0.504829740949701
-7.81256386572978,0.588507462782681,-0.381858048393318,0.0549861327329684,0.137109143259816,-0.0628693873560027,0.0832847929023832,-0.0234881793317453,-0.0186777726415208,0.695394694568962,-0.279137659470038,-0.42943142075742,-0.504080391105618
-7.90323080756142,0.695754160745501,-0.304645614419156,-0.0235789888291064,0.143530033472664,-0.0663047836174493,0.0834418286219025,-0.0220849834480829,-0.0193236434963881,0.69878498995426,-0.272797210109635,-0.429028618734349,-0.503205389754444
-7.8602088612295,0.818821636956709,-0.169302479481691,-0.10238233536868,0.151102494556381,-0.0686774020343378,0.0828120220009136,-0.0206118208079377,-0.019998554424647,0.701359136708583,-0.267190093073961,-0.42949336944391,-0.502235264713895
-7.68064334750417,0.959096583782818,0.0435214276436543,-0.180072744607967,0.159991667755285,-0.0693091852409122,0.0813997466010304,-0.0190563499963794,-0.0206884873610232,0.703125612116983,-0.262388732255635,-0.430768425086358,-0.501203641965038
-7.36606363561382,1.1068632659677,0.347740258947931,-0.255292427719176,0.170321049099244,-0.0673557547553385,0.0792229207393947,-0.0174047864121067,-0.0213718120610045,0.70409340713445,-0.2584854582318,-0.432764735574602,-0.500152402329074
-6.92010319302253,1.24321006561775,0.746873881090069,-0.326709410057976,0.182070997852377,-0.0618855620025327,0.0763129115505089,-0.0156428261773486,-0.0220180186447939,0.70427101869354,-0.255587819724253,-0.435367362097349,-0.49913170472067
-6.34705449122174,1.34499581933483,1.23340035491169,-0.393031346674816,0.195011609372347,-0.0519870687699081,0.072714207766845,-0.013757413141225,-0.0225873817986561,0.703670585300496,-0.25379608107515,-0.438450367406952,-0.498193267652688
-5.65079125265274,1.39305608985721,1.7935705997884,-0.453006723589807,0.208701451013513,-0.0368550919437919,0.0684840174155218,-0.0117388478392957,-0.0230315926022246,0.702314650726061,-0.253171988539928,-0.44189524409281,-0.497379803412266
-4.8349160620977,1.38018369510256,2.41391972602672,-0.505421408359178,0.222567232033518,-0.0158205182621005,0.0636918767557769,-0.00958250442406052,-0.023294970653254,0.700242459420672,-0.253714609546828,-0.445602170173965,-0.496717324907479
-3.9055824106942,1.31428796017845,3.08509482247745,-0.549110048918757,0.23603917240513,0.0116716765330361,0.0584192194693872,-0.00728947240186728,-0.0233157148618993,0.697514374727263,-0.255353647437867,-0.44948721873495,-0.496215126717165
-2.87676459997909,1.21453298446758,3.80179813924987,-0.583007932167742,0.248682859223566,0.0461032633942885,0.0527586295639547,-0.0048658622437238,-0.0230268401622627,0.694213795018652,-0.257960752825047,-0.453468337563026,-0.495872890603593
-1.77483776310741,1.10105591996621,4.55920403812576,-0.606252092178793,0.260260385840942,0.0879053963337824,0.046812329442222,-0.00232114601840126,-0.0223567968636224,0.690445127727506,-0.261372813728137,-0.457451015687345,-0.495689767987802
-0.638584646849697,0.983314057348193,5.34447100818135,-0.618305352424198,0.27068181782272,0.137420893617934,0.0406895422192071,0.000333564999917051,-0.0212301654138638,0.68632848480838,-0.265414599695824,-0.46132643792361,-0.495667447873725
0.483833802295091,0.856218191546738,6.12494906502651,-0.61906525484259,0.279879061162401,0.194765116036589,0.0345026891828731,0.00308636939484266,-0.0195692353655912,0.681996629737307,-0.269905796902015,-0.464986963625261,-0.495800949458756
1.53580497223928,0.70778749811809,6.84066584155442,-0.608953209165536,0.287698671705931,0.259590312622109,0.0283625968628325,0.00592425805918432,-0.0172974582222977,0.677597787624399,-0.274651729797645,-0.468351171136743,-0.496059317038317
2.45327777492368,0.530848670559944,7.40643174549203,-0.588993943625341,0.293891434644528,0.330822922609957,0.0223728610988781,0.00883220859093662,-0.0143453920461374,0.673298645663654,-0.279435959981663,-0.471385781291238,-0.49636672250773
3.1749684613477,0.330214478585986,7.72497804599501,-0.560838860639603,0.298196332485464,0.406477093620008,0.0166236970775534,0.0117926474265866,-0.0106588919649875,0.669278328337736,-0.284031698417766,-0.474115793380677,-0.496595134871835
3.66265039933418,0.123827182187284,7.71164945937713,-0.526636914531812,0.300466122884537,0.483657353199485,0.0111863182016963,0.0147859597034366,-0.00620821973089006,0.665711085078593,-0.288229871810774,-0.476619442240341,-0.496574465189194
3.91835958179969,-0.0612170176008149,7.32240493028586,-0.488718012821761,0.300778755802675,0.558824747200415,0.00610954356492848,0.0177921840968726,-0.000995809228890563,0.662744008733535,-0.291867236486418,-0.479009982925442,-0.496118263533356
3.98664330890828,-0.196485611688473,6.56860519007324,-0.44917914656384,0.299489824751435,0.628276919854827,0.00142005776800047,0.0207935269996432,0.00493969910638565,0.660476904411807,-0.294842179927914,-0.481412194819865,-0.495056205246105
3.94313114829739,-0.261237257688223,5.51213462171894,-0.409516422473431,0.297200792499758,0.688677740966403,-0.00287342007718588,0.0237769800858992,0.0115244724104918,0.658945718249595,-0.297121349683621,-0.483941149682043,-0.49326504802908
3.87499063846075,-0.252140097916227,4.24975739142575,-0.370411961735259,0.294633487816942,0.737484323084743,-0.00677306199822933,0.0267361514874827,0.0186552827307475,0.65811042491513,-0.298744544352843,-0.486685570620072,-0.490692899059742
3.85584419962494,-0.192896939261649,2.89511194843458,-0.331743935740449,0.292407884726259,0.77320579183666,-0.0102838414856079,0.0296713583501987,0.0262087333053545,0.657854967721419,-0.299822703465796,-0.489698654790127,-0.487368869981919
3.9192892418154,-0.13799155195639,1.55821781008006,-0.292854416728866,0.290753024365375,0.795469562681849,-0.0134068332479544,0.0325871628956568,0.0340521100779471,0.658007761268364,-0.30051628450356,-0.493001396990502,-0.483389461432689
4.03806932077345,-0.164115732270542,0.322002880111794,-0.253053772111541,0.289242070039447,0.804867788185424,-0.0161363741921565,0.0354871383676809,0.0420537968322834,0.658382273158593,-0.300990159815385,-0.496597508176201,-0.478882679743192
4.11672250408323,-0.345599190399946,-0.777919738644623,-0.212265961182876,0.286693077521301,0.802585325945376,-0.0184629728586286,0.0383668141054847,0.0500910624029374,0.658825692527798,-0.301355813020456,-0.500492352712904,-0.473962852658253
4.00730803956281,-0.715827608767012,-1.75829755634026,-0.171631956660265,0.281385525620672,0.789901361523067,-0.0203824624478443,0.0412072071211946,0.0580534958402796,0.659252272529814,-0.301630319118308,-0.504708419407137,-0.468695000114587
3.55649153360394,-1.23378086886566,-2.66901199404768,-0.13379910699005,0.271637065327715,0.767761935823743,-0.0219096177660958,0.0439723200759365,0.0658418123270137,0.659634633144084,-0.301755887536469,-0.509289989083739,-0.463086646442146
2.67756213524915,-1.78946236589427,-3.55847268938215,-0.102614986841403,0.256520431249122,0.73662163445921,-0.0230916882352531,0.0466131075588207,0.0733637301784285,0.65994695728733,-0.301697249383219,-0.514291156628013,-0.457114197434313
1.41766652827735,-2.26071694995233,-4.44369924386512,-0.0821249917193895,0.236269116765096,0.696607896845589,-0.0240153881280571,0.0490770552988918,0.0805298778349525,0.660092301853736,-0.301565031520252,-0.519753225799449,-0.45076964080192
-0.0211021150191244,-2.58368176970945,-5.28871188788826,-0.0751283178487171,0.212046705261993,0.647942963239438,-0.0248016546758976,0.0513186344090272,0.0872526321353776,0.659870833149333,-0.301667372862346,-0.525686578983198,-0.444095598251184
-1.33216503825746,-2.77956452635021,-5.9956198743263,-0.0818808018107189,0.185230055876901,0.591518426480981,-0.0255867002741948,0.0533050182147217,0.0934499390839797,0.659027856349696,-0.302424152755276,-0.532066310720026,-0.437181149390226
-2.21470984951647,-2.91787312874585,-6.43721405311289,-0.0996013244452073,0.156742449696627,0.5293513788964,-0.0264941109054744,0.0550148807425893,0.0990542881108666,0.657357991628244,-0.30417739420685,-0.538840821798145,-0.430124577837529
-2.49668521714219,-3.0445605475292,-6.5285049735801,-0.123144447974119,0.126929863410458,0.464519905815551,-0.027607839767571,0.0564332423081247,0.104023644534426,0.654788641100698,-0.307025135898184,-0.545943258174969,-0.423005153946737
-2.20527117773299,-3.12779171790725,-6.27363613991104,-0.146640378144114,0.0960676841784822,0.400506322300711,-0.0289567638981622,0.0575482300460695,0.108348775675008,0.65138915013323,-0.310796505465036,-0.553293674605593,-0.415889188271192
-1.54100045138916,-3.06722754790391,-5.74610876931973,-0.165357884485344,0.0650921699446328,0.340404719807173,-0.0305167552113095,0.058354029316685,0.112053330885547,0.64731600930226,-0.315178829539538,-0.56078721578771,-0.408854482817729
-0.773367432582405,-2.76533163297795,-5.03600324124752,-0.17691587210082,0.0359289561354299,0.286491281806953,-0.0322281239942403,0.0588591349470853,0.115187810893618,0.642730848240157,-0.319909169715203,-0.568275441832129,-0.402017663869532
-0.124025156412398,-2.20396061805839,-4.219804907862,-0.181388983241413,0.0110820769754545,0.240209363114021,-0.0340196482709515,0.0590941901126398,0.117821314118223,0.637733037298388,-0.324905803186606,-0.575566616537108,-0.395545019083624
0.300933106181144,-1.46280958782335,-3.36790423487375,-0.180490591688188,-0.00725219195874784,0.202267939452958,-0.0358290461455995,0.0591133395377233,0.120033700631057,0.632343879566235,-0.330266099337785,-0.582462713904241,-0.389618670644303
0.510427193352462,-0.672824934253915,-2.56193419333589,-0.176419938386139,-0.0179307824739278,0.172615869364526,-0.0376135987959711,0.0589874246655599,0.121908119675145,0.626536236185557,-0.336174486208069,-0.588803606849212,-0.384381805150211
0.579662133239799,0.040751559366897,-1.89154817391637,-0.170955639948796,-0.0210915672531566,0.15034557958088,-0.0393504766876458,0.0587923129169245,0.123522926919872,0.620272718517916,-0.342813429927892,-0.594476018843066,-0.379919688807999
0.590023650344363,0.58420837267597,-1.43019189007022,-0.165093359226494,-0.0179671854977359,0.133734001313563,-0.0410307216835223,0.05859701915317,0.124943324824344,0.613535525875643,-0.350309984833018,-0.599391969337595,-0.376279603630583
0.589585006111009,0.902290283448151,-1.20994506697406,-0.159181464139836,-0.010535110121909,0.120530438580957,-0.0426520958003539,0.0584545076750718,0.126214647023817,0.606349747927586,-0.358699950081416,-0.603473677666615,-0.373488753998394
0.585198734532675,0.98402384878556,-1.21064496197092,-0.153293693632237,-0.00110395736553406,0.108424610488848,-0.0442144715892143,0.0583963123376346,0.127359422269166,0.598793553425653,-0.367908328992551,-0.606661993866899,-0.371552105405456
0.558611479149818,0.860061233963059,-1.3668428082018,-0.147560790759443,0.00811605014341538,0.0955342936906005,-0.0457187440111727,0.058431372801524,0.128379216790063,0.590984078072277,-0.377763752659002,-0.608936619879209,-0.370443733395684
0.491773547865079,0.58555782641674,-1.58956702029865,-0.142295013819987,0.0153437275405207,0.0807493666007141,-0.0471680230340698,0.0585486716899437,0.12926063509152,0.583045159847374,-0.38804272368098,-0.610331942708428,-0.37010283150302
0.385239034438453,0.220280951888211,-1.79480378350179,-0.137896099104088,0.0193725035272518,0.0638246346343277,-0.0485689785986902,0.0587222528452825,0.129983505097695,0.575080376941193,-0.398514771734553,-0.610940681416399,-0.370432207774915
0.25915384194012,-0.181632828673257,-1.92722132811695,-0.134660282917814,0.0195653262385329,0.0452116311288497,-0.0499317605087997,0.0589169419941115,0.130528686426511,0.567167148463066,-0.408968828531352,-0.610903286280221,-0.371299202538862
0.139549060868292,-0.57309501521097,-1.97029290672894,-0.132652916599391,0.0157912691143181,0.0257211820072361,-0.0512683265063858,0.0590937249708757,0.130883350492191,0.559365416793271,-0.41922496431455,-0.61038572991598,-0.372545326780635
0.04378031989658,-0.913888693966427,-1.94049446042918,-0.131722417891186,0.0083559326636375,0.00616436722406126,-0.0525902031788386,0.0592144609797655,0.131042778238348,0.551724300934571,-0.429143038270429,-0.609553793726697,-0.374006311465028
-0.0234951776016635,-1.17304736260856,-1.86996341909636,-0.13160714037533,-0.00207916552403107,-0.0128908001209507,-0.0539068509701712,0.0592458448154635,0.131009146073863,0.544278686008037,-0.438631278147863,-0.608552450836638,-0.375535921542078
-0.0647360261012988,-1.33387093896982,-1.78756598097419,-0.132034444589463,-0.0146141749367166,-0.0311813250686876,-0.0552250588949952,0.0591623781131598,0.130788785447915,0.537041819640964,-0.447648718752869,-0.607494548928221,-0.377023980110197
-0.0827771090760271,-1.39756442740431,-1.70800664591211,-0.132758158460969,-0.0282717696733809,-0.0486620661505034,-0.0565490219102473,0.0589479483901093,0.130389568491819,0.530005246639745,-0.45619502905152,-0.606459341507246,-0.37840137566032
-0.0784602955717946,-1.38026677475771,-1.63153199878389,-0.133550493679827,-0.0421613435889847,-0.0653626373213676,-0.0578805651709513,0.0585957828237975,0.12981944497446,0.523149111482744,-0.464290955534905,-0.605498217700566,-0.379632485602509
-0.0523360328123241,-1.3043907381039,-1.55055263207777,-0.134190623517366,-0.0555850490580864,-0.0812759384230602,-0.0592192707569373,0.0581070508605621,0.129086252095737,0.516454571783988,-0.471961581404179,-0.604641895937634,-0.380703452360006
-0.00780028744711592,-1.18981759473288,-1.45752589884625,-0.134477453314282,-0.0680565086270639,-0.0963192090250645,-0.0605626111410955,0.0574888430721364,0.128198276358497,0.509909582893177,-0.47923072228279,-0.603904720720497,-0.381613967754747
0.0472380512359846,-1.04819252141817,-1.34935859499124,-0.134266412690957,-0.0792469771126128,-0.110356509441636,-0.0619063304711217,0.056752325643438,0.127164897766163,0.503506039359941,-0.486125025054453,-0.603286029532381,-0.38237428641964
0.102274157014116,-0.882212467416973,-1.2277965929174,-0.133504999845325,-0.0888994199615821,-0.123245163328564,-0.0632451875338031,0.055911593658067,0.125996889402312,0.497230466056946,-0.492682301870473,-0.602770561286977,-0.38300608806413
0.148468911385768,-0.690663537388025,-1.09880621565783,-0.132237432698944,-0.0967642178904008,-0.134881055318824,-0.0645738996965245,0.0549832754688071,0.124706258309075,0.491053012986111,-0.49895825499391,-0.602329881362421,-0.383544407114257
0.181595827283898,-0.475596739248936,-0.972167373299418,-0.130573257201215,-0.102595937178379,-0.145238801210994,-0.0658879531460253,0.0539864746934632,0.123305659026426,0.484920508435869,-0.505026727752574,-0.60192608504417,-0.384037879508291
0.202951178285525,-0.247731342132266,-0.859521927740883,-0.128636670368986,-0.106212995490079,-0.15440012566358,-0.0671840027838763,0.0529424300301209,0.121807464392053,0.478756604758961,-0.510972356039637,-0.601517305655621,-0.384546870692997
0.220623852269625,-0.029905739928129,-0.770021784737492,-0.126504943411829,-0.107601598805175,-0.162550722173356,-0.0684597108527803,0.0518733570586446,0.120222710152869,0.47246979900117,-0.51687739305314,-0.601063684896897,-0.385139580257012
0.251144357677044,0.14226552846739,-0.705849408757907,-0.124132250557715,-0.107040217767272,-0.169932956088218,-0.0697128968226281,0.0508001479757824,0.118560291761561,0.465969407279125,-0.522805122917234,-0.600533206858201,-0.385884934134572
0.31802587706246,0.225812522918055,-0.660993034490132,-0.121272547579636,-0.105200245415138,-0.176770046251842,-0.0709399208133148,0.0497389456598704,0.116826776749861,0.459186266791894,-0.528784110214193,-0.599906833260162,-0.386842511343404
0.444810757954374,0.18195895733284,-0.62404008904479,-0.117444512600171,-0.103161805918677,-0.183198089816901,-0.0721335061142138,0.0486971354032013,0.115026936069517,0.45209054489647,-0.534799567795915,-0.599181465029013,-0.388053003423762
0.645810587242683,-0.0116913521321958,-0.582144344165377,-0.111977554069804,-0.102310885797468,-0.189231889930336,-0.0732806164475637,0.0476697719446206,0.113164786170781,0.444699516568754,-0.540795834373661,-0.598369615674127,-0.389533064739836
0.921152026859552,-0.353452267578759,-0.523433482985356,-0.104128889194912,-0.104137021800816,-0.194762657013474,-0.0743611486638873,0.0466375324066291,0.111244813436062,0.437075217444628,-0.546687207037087,-0.597496678882455,-0.391274929789985
1.25831823040824,-0.814028959164732,-0.438099084083228,-0.0932176861041917,-0.109974845839327,-0.199573197796201,-0.0753478815403828,0.0455669730684284,0.109273134162013,0.429319005705796,-0.552369352923149,-0.59659809991417,-0.393248008856816
1.63634102515568,-1.33574301894976,-0.318668922633186,-0.0787305380219908,-0.120724123634694,-0.203359915777167,-0.0762076226610137,0.0444134782210583,0.107258468594146,0.421568507665395,-0.557726289765772,-0.595717202897364,-0.39540155945699
2.02971323007532,-1.83825123956139,-0.158439400777467,-0.0603864149414546,-0.136594512832043,-0.205748335341605,-0.076903207425831,0.0431268850387246,0.105212927338553,0.413993687876812,-0.562635415658799,-0.594900857899625,-0.397672710548382
2.4135805258704,-2.235621856035,0.0515597895016257,-0.0381560943573447,-0.156964296214819,-0.206285611345368,-0.077395919972325,0.0416590909934903,0.103152757605118,0.406784726402348,-0.566975367138729,-0.594189330948554,-0.400005197979451
2.77100372697889,-2.46171255351717,0.323234138106514,-0.012219321288717,-0.180451386167373,-0.204414519654712,-0.0776477970505553,0.0399720125815794,0.101099256950117,0.400132391183851,-0.570635043631228,-0.593601427759137,-0.402376765566544
3.09818550384959,-2.49110202396126,0.665305054689686,0.0171404766698066,-0.205215876959559,-0.199474701638115,-0.0776231912736498,0.0380436762659447,0.0990798108436532,0.394212561554679,-0.5735163687985,-0.593121924277141,-0.40482318853354
3.40306250288022,-2.34261780618527,1.07150449670866,0.0496605685078369,-0.229384894015085,-0.190793531828507,-0.0772891860477616,0.0358706724110715,0.0971284696763201,0.389184614410714,-0.57552777027953,-0.592697380427894,-0.407446851475096
3.69675562445264,-2.06488753109407,1.51120520032549,0.0851735109488824,-0.251422838606276,-0.177882861290721,-0.076615015650478,0.0334666337479647,0.095285087710724,0.385201967878741,-0.576573340191087,-0.592240539562517,-0.410406835496117
3.98135496385142,-1.71414832231323,1.93058658273329,0.123577915694784,-0.270318435778106,-0.160676780322811,-0.0755712585172597,0.0308579273760428,0.0935922895026563,0.382427624834146,-0.576543677095132,-0.591641184784618,-0.413892750156355
4.24044483182936,-1.33442641734203,2.26445339659109,0.164700766477569,-0.285561727381176,-0.139704458373574,-0.0741298651063979,0.0280785265602464,0.0920903833091744,0.381046458045052,-0.575312358201136,-0.590781481026138,-0.418086748162305
4.43932540949453,-0.947147720723405,2.45167985232158,0.20811346948857,-0.296970015976297,-0.116126670076394,-0.0722657939265672,0.025165867843459,0.0908112276669245,0.381263253771917,-0.572742494373369,-0.589551526947094,-0.423123343171436
4.53713496463413,-0.553885463715827,2.44759483567283,0.253009623163594,-0.304475599803286,-0.0916331745838066,-0.0699601784633064,0.0221586397645611,0.0897724284436235,0.383279346704354,-0.568706257871128,-0.58785959581402,-0.429058539429619
4.50497750385069,-0.149449750325306,2.23082024835144,0.298234037310399,-0.307992693778286,-0.0682439771110694,-0.0672039601609364,0.0190962982966532,0.0889730426851491,0.387253635991777,-0.563114105110207,-0.585635522229755,-0.435853371146491
4.34070590276737,0.262560294528931,1.80402514907306,0.342476306147871,-0.307427558962061,-0.0480726280713311,-0.0640004084436451,0.0160191970329515,0.0883914596592371,0.393263426758316,-0.555945127711054,-0.582831027341331,-0.443369919724936
4.0742596186624,0.660104183739181,1.18901226058126,0.384564985559401,-0.302814654475514,-0.0331103189704438,-0.0603652019851087,0.0129679859657636,0.0879855449240283,0.401279522371332,-0.547269007020171,-0.579420536885483,-0.45137924222978
3.76186504969226,1.0054059230666,0.421500219766415,0.423759460705555,-0.294487521846279,-0.0250606345160896,-0.056323579753784,0.00998147508415465,0.0876946901565956,0.411162377831824,-0.53725202956348,-0.575400397435693,-0.45958692150283
3.47019638620437,1.26084210540391,-0.446344463515377,0.45993361968942,-0.28315669960872,-0.0251877336822186,-0.0519051143518091,0.00709325397687965,0.0874434483156041,0.422676535345377,-0.526144261999096,-0.570781929695848,-0.467680180001825
3.25503899591374,1.40905077730255,-1.33692557813409,0.493573648404391,-0.269807653099981,-0.0341069618378502,-0.04713757801134,0.00432843221333615,0.0871469748380037,0.435514693627763,-0.514251137824832,-0.565579116570383,-0.475387191434147
3.14264991859339,1.4630973234611,-2.14665829488171,0.525575944781308,-0.255447330500957,-0.0515277591503134,-0.0420418300454115,0.00170215729533145,0.0867188012330629,0.449327005717647,-0.501895140500297,-0.559797983311677,-0.482527437308159
3.11964509747053,1.45983390509803,-2.76832437037156,0.556901271666009,-0.240833092262955,-0.076105550423964,-0.0366294439631749,-0.000779244818488105,0.0860806346851915,0.463757648552392,-0.489373163379533,-0.553434247452183,-0.489033009233631
3.13297575801534,1.44329921305374,-3.12971797212671,0.58817822774782,-0.22631784457699,-0.10559864008384,-0.0309040464661058,-0.00311499950268783,0.0851721137326525,0.478484129677789,-0.476920347424563,-0.546479681537815,-0.494934215351143
3.10244914779248,1.44965517346194,-3.22077490046912,0.61936920408124,-0.211853490549205,-0.137353982394203,-0.0248663093069605,-0.0053058561783188,0.0839573506202623,0.493244848942923,-0.464694366324296,-0.538932580882967,-0.500320235609712
2.94454948386159,1.49790146621305,-3.088914106562,0.649618049043891,-0.197116125255624,-0.168905305376743,-0.0185213730413348,-0.00735070425734294,0.0824260541814075,0.507847373956658,-0.452781770693835,-0.530809347648665,-0.505293132094115
2.59736161588943,1.58592696786502,-2.81026784502332,0.677341456347028,-0.181697400990027,-0.198404093082054,-0.0118865755143802,-0.0092447718885712,0.0805895071891135,0.522163770376307,-0.441213030916003,-0.522157177352579,-0.509929348435154
2.03652000263307,1.69377442262692,-2.45919276167393,0.700524716244022,-0.165299311942361,-0.224754274062924,-0.00499724465142498,-0.0109797554532331,0.0784737153533887,0.536120694728765,-0.429975086759319,-0.513064007175619,-0.514258057779126
1.27893675613284,1.79350641997179,-2.09098027601449,0.717115851842232,-0.147863325634161,-0.24750801719875,0.00209095818900629,-0.0125455686411157,0.0761124038970803,0.549685255264089,-0.419022310285326,-0.50365783691498,-0.518261716647607
0.37437702261281,1.85791199046547,-1.73958835032017,0.725396272540342,-0.129606651486768,-0.266663738277808,0.00930351881091916,-0.0139329185267204,0.0735415451196975,0.562845929893257,-0.408291182493051,-0.494092810615095,-0.521895644740878
-0.612341510008628,1.86310954487647,-1.42485117572463,0.724220301907744,-0.111001961714852,-0.282488813855416,0.0165516016831596,-0.0151359615927285,0.0707957823590314,0.575593438911978,-0.397716530933016,-0.484530672053272,-0.525113113475272
-1.62121701763662,1.79160450450025,-1.16094050657756,0.713066361073899,-0.0927288093727622,-0.295420650214311,0.0237380349980678,-0.0161546154481666,0.0679062350386827,0.587910348768159,-0.387239523782424,-0.475130688421937,-0.527880480745177
-2.61058178769385,1.64160268306274,-0.958709379506908,0.691921218851628,-0.0755631913397409,-0.306021777592118,0.0307629728976954,-0.0169960754517291,0.0648990228996506,0.599770395054305,-0.376806090523264,-0.466050074224373,-0.530179188271694
-3.55933504217545,1.43356757777691,-0.821434128066629,0.661085486506662,-0.0601877579403362,-0.31492537307737,0.0375280064244869,-0.0176748301981295,0.0617942871463032,0.611137741408033,-0.366371205032208,-0.457442882250645,-0.532004521247855
-4.45937851687544,1.20272501399664,-0.741976024827395,0.621005770515789,-0.0470067128862621,-0.322745301789224,0.0439384627095991,-0.0182108025522625,0.0586059337719702,0.621961604222916,-0.355918406393837,-0.449450790567017,-0.533366513498186
-5.30533533838457,0.984141936617875,-0.70742970016472,0.57219605304387,-0.0360727960379832,-0.329995208361569,0.0499044718273974,-0.0186262000968837,0.0553422312212162,0.632175451527403,-0.345477471912177,-0.44219714816722,-0.53428568859747
-6.08782882986704,0.806003106541711,-0.706655581881185,0.515244084006994,-0.0271224887269789,-0.337068512719183,0.0553416725126518,-0.0189421765207085,0.0520069126158125,0.641707529086576,-0.33512009629174,-0.435794128212019,-0.534779810754803
-6.79220571166779,0.691183475075713,-0.733099859628008,0.450857763103701,-0.0196369737236854,-0.344270167874113,0.0601721817482052,-0.0191759738329618,0.048600219212846,0.650494888331256,-0.324941114352723,-0.430351855819002,-0.53485227180153
-7.40136974636557,0.65531331058394,-0.781853660413976,0.379903737617915,-0.0129049077001808,-0.351847813421707,0.0643259892518133,-0.0193386832400811,0.0451196293063669,0.658490644730133,-0.315046269879623,-0.425973925269105,-0.534492407456515
-7.89929255262428,0.700552754377171,-0.84483893493951,0.303414277927347,-0.0061259952801689,-0.359984154345859,0.0677425793295396,-0.0194338377549829,0.0415604694675291,0.66566425834606,-0.305550702799732,-0.422742517235001,-0.533684014470168
-8.2721737699071,0.814229201925566,-0.908067272091592,0.222570798119071,0.00144749659655113,-0.368751563328398,0.0703725047097717,-0.019457230248401,0.0379167908791578,0.671999771133721,-0.296578052225005,-0.42070693543846,-0.53241284827531
-8.50760047385641,0.974185982920598,-0.952274990302512,0.138685778704635,0.0103891546159883,-0.378056152587753,0.0721787875938903,-0.0193980469923383,0.034182752299577,0.677493925143396,-0.288255007830034,-0.419880928671515,-0.530670366228082
-8.5943685000392,1.15502169261625,-0.955268379565772,0.0531897856395381,0.0210347750888789,-0.387596747384479,0.0731381654156111,-0.0192409273438139,0.0303544877997158,0.682153356768737,-0.280703965768197,-0.420244984220514,-0.528456464326676
-8.5240608531865,1.33236153064138,-0.893527741608247,-0.0323885093222092,0.0334712733003734,-0.396843605937733,0.0732421717971977,-0.0189683971018677,0.0264322860331048,0.685990342009496,-0.274037191214296,-0.421749017289786,-0.525783829074434
-8.29289170196577,1.48666152769979,-0.742042840167331,-0.116459420293589,0.0475659706872856,-0.405024336793995,0.0724979321491188,-0.0185632108819294,0.0224229463194462,0.689017441537146,-0.268354840715031,-0.424312677722383,-0.522684796264898
-7.90220241222918,1.60609924718026,-0.473534374622661,-0.197421039060183,0.0630293566568922,-0.411105100815329,0.0709285298523499,-0.0180102342452085,0.0183422991313995,0.6912424100534,-0.263748508508301,-0.427821821301453,-0.519219745407974
-7.35743882760837,1.6850621163594,-0.0600072802901761,-0.273705393454989,0.0794847455697968,-0.413775687037278,0.068572897689774,-0.0172976637340751,0.0142178951921365,0.692666439200223,-0.260307130344213,-0.432123496839041,-0.515482963226956
-6.66652212465844,1.71883566500567,0.521800239424187,-0.343811346411942,0.0965038165718285,-0.411469600188992,0.0654853139904394,-0.0164177209233669,0.0100916687560051,0.693289118209682,-0.258113762285583,-0.437027927776763,-0.511599525638923
-5.83870505326035,1.70150482959521,1.28430852214662,-0.406323630497155,0.113605101140039,-0.402441934328522,0.0617346391058939,-0.0153671763348076,0.00602211108341758,0.69311992472682,-0.257222547570739,-0.442325962369864,-0.507709635501908
-4.88432544581015,1.6306652595454,2.22598879253421,-0.459924931188126,0.130265533680949,-0.384893325702502,0.0574033962974675,-0.0141478231607026,0.00208543478326246,0.692190856859161,-0.257622167174836,-0.447818927120329,-0.503945279939716
-3.81548937331721,1.51323410605951,3.32893896946348,-0.503410153479382,0.14598461260418,-0.357121564839898,0.05258672087413,-0.012766572429277,-0.00162463966944954,0.690563744056658,-0.259207488628979,-0.453346065082186,-0.500410370103985
-2.64807094884148,1.36582303463287,4.55368031876269,-0.535714103285794,0.160379480402848,-0.317711346346151,0.0473910995903041,-0.0112347519642419,-0.00499880422537979,0.688330402131797,-0.26177580577578,-0.458796535076586,-0.497172429256932
-1.40476072182224,1.2105427654158,5.83428735650274,-0.555964409834731,0.173260891498297,-0.265774385917208,0.0419327070247014,-0.00956655010473615,-0.00791623288669659,0.685608778485425,-0.265047668171115,-0.464103906837248,-0.494265010008984
-0.117622912015865,1.07139178778057,7.07971683048106,-0.563562476199541,0.184670146359486,-0.201207242929673,0.0363350725945301,-0.00777689491544723,-0.010251141030931,0.682538469193763,-0.268704545389475,-0.469227790959293,-0.491695419491714
1.169659754766,0.972606822524178,8.18208004898744,-0.558288440181409,0.194889721506216,-0.124901136479715,0.0307258180126253,-0.00587909557611872,-0.0118816829279779,0.679275917665389,-0.272437158123554,-0.474126992912983,-0.489454611935262
2.39827905500997,0.934401966410777,9.02870872391193,-0.540434894328148,0.204424347546097,-0.0388500705626026,0.0252322013400775,-0.00388252523085716,-0.0127004389631895,0.675988025876566,-0.275996229569481,-0.478731797833741,-0.487526548895348
3.49418451933639,0.963063260513725,9.51809300767059,-0.510958724652035,0.213911255775926,0.0538810601479258,0.0199752332451766,-0.00179084721424704,-0.0126252840152629,0.672844290800878,-0.279228991897737,-0.482932033138987,-0.485889269061049
4.38025310975855,1.04048683560676,9.58159997513666,-0.471572684702179,0.223928588351734,0.149376647114578,0.0150625761984056,0.000398352006391257,-0.0116089954789504,0.670008959242799,-0.282084690251439,-0.486594600477033,-0.484501720169008
4.99878106195571,1.12129695382565,9.20429707697798,-0.424663662039226,0.234737089394103,0.243303254427767,0.0105813944646985,0.00269168039512044,-0.00964559597123867,0.667633885285475,-0.284586890335241,-0.489604047489604,-0.483283740415232
5.33054494716895,1.14016454329006,8.43070025858759,-0.373003180189222,0.246043978974888,0.33147536315821,0.0065930602535563,0.0050955857369654,-0.00677170288330879,0.66585078788431,-0.286786157097847,-0.491905982995689,-0.482104690149284
5.40165747012899,1.02713218042408,7.3490134036298,-0.319328316298351,0.256880044688665,0.410371053521913,0.00313140277111843,0.00761020585528316,-0.00306247079990817,0.664760924164303,-0.288712120440091,-0.49353816715359,-0.48078924985682
5.27781248870476,0.72987890479125,6.06226581323484,-0.265917114699801,0.265664682209948,0.477424571658852,0.000205175616127674,0.0102229294897762,0.00137650732599566,0.664423410748406,-0.290338584612141,-0.494643074757923,-0.479138044960845
5.0422463504123,0.239562767658731,4.66196670468017,-0.214302968699835,0.270511472667404,0.531042856301043,-0.0021959248008705,0.012903810264163,0.00641884446579513,0.664847238002003,-0.291568718687478,-0.495456534805695,-0.476957707268039
4.75634465318131,-0.393878906149121,3.21511036523727,-0.165296161877485,0.269739474070158,0.570425363703246,-0.0040939204537571,0.0156050649978508,0.0119261855658166,0.665988669609095,-0.292249728476927,-0.496267997561727,-0.474096258953331
4.42067646847924,-1.07182685257069,1.76452617537012,-0.119397204464801,0.262410527371766,0.595320668458899,-0.00551738728546854,0.0182658150050604,0.0177549157266273,0.667749285459269,-0.292225446996297,-0.497360081539084,-0.470476491642129
3.96345556597998,-1.67793165370112,0.337184242544574,-0.077462692488124,0.248661316935613,0.605826342601088,-0.00650168677023316,0.0208211742265973,0.0237606507819272,0.669973117591114,-0.291414194759883,-0.498950891809781,-0.466113501585094
3.27095909335405,-2.10941774677542,-1.04361428273084,-0.0412767673870727,0.229724152028437,0.602291314452773,-0.00709538406960915,0.0232131015714176,0.0298012390671965,0.672451131153457,-0.289874350064156,-0.501166037205975,-0.461101876526847
2.2536967027774,-2.29662968898855,-2.34504657513112,-0.0136396366020343,0.207693496944823,0.585345132216079,-0.00736996608955468,0.0254001898162839,0.0357394213005408,0.674938836283829,-0.287826025895905,-0.504050320362484,-0.45557328788602
0.919598245806713,-2.22054871856006,-3.51612086564332,0.0022406899452675,0.185107187002286,0.556036417064822,-0.00742696082283851,0.0273641932360194,0.0414463290469453,0.677176532506759,-0.285634383149019,-0.5076017341736,-0.449650333536133
-0.5869787615061,-1.93596932064557,-4.49122690214642,0.00391763917115177,0.164324178901465,0.515996800278489,-0.00739616917725642,0.0291113500655382,0.0468064951336619,0.678901180475651,-0.283773207312497,-0.511801657113465,-0.443424196155619
-2.00708683022682,-1.57369997196315,-5.20472584727552,-0.00903883698313165,0.146775414533627,0.467514158583995,-0.00742177516631632,0.0306668480327136,0.0517240499279743,0.679860705285525,-0.282755308090081,-0.516631876298454,-0.436955789008328
-3.04468128886689,-1.29267719143234,-5.60958571284875,-0.034283825774219,0.132443110811856,0.41343972283599,-0.00763838848010307,0.032062940659441,0.0561288193350742,0.679845004031662,-0.283014141316687,-0.522077814625172,-0.430288881780802
-3.47478931602459,-1.20341095142265,-5.69710751269741,-0.0668673269942952,0.119962252192788,0.356903378760875,-0.00814414424394564,0.0333249674744643,0.0599805348430585,0.678725168070486,-0.28477630166904,-0.528113374934457,-0.423474754207063
-3.24365703289623,-1.31297731074076,-5.5055294138614,-0.100445706934518,0.107379892977177,0.300887316180696,-0.00898070941358971,0.0344616782003141,0.0632694883177664,0.676481374073554,-0.287992296602145,-0.534678538942142,-0.416596024493843
-2.50541623969843,-1.52224458167026,-5.10175642552818,-0.12917722149311,0.0932033656103283,0.247848009036364,-0.0101288240557278,0.0354645944932516,0.0660131649438517,0.673205915109423,-0.292363113316653,-0.541674361656172,-0.409763946386034
-1.56090747399311,-1.67712348693888,-4.54730600820636,-0.149494988257187,0.077206107362489,0.199599818920307,-0.0115221851044793,0.0363166418581157,0.0682504040836351,0.669071727669975,-0.297463734848672,-0.548973992936621,-0.403095404044522
-0.724330454283215,-1.65096718289603,-3.88085455635615,-0.160907326094187,0.0605652361085208,0.157456138150111,-0.0130741966762362,0.0370054985754707,0.0700356838689872,0.664267983857538,-0.302922284901231,-0.556429868853633,-0.396701318348689
-0.194066461574459,-1.41006889478618,-3.13319304303805,-0.165485458869094,0.0452596378153161,0.122383022205755,-0.0147061606010526,0.0375346229450899,0.0714348796707665,0.65893430881345,-0.308557322697091,-0.563882923771194,-0.390684020095261
-0.00282327967766516,-1.0135387911734,-2.3539465588549,-0.166456055770974,0.0331411814807246,0.0949444462489063,-0.0163658681742529,0.0379266270415701,0.0725215170130398,0.653133823147988,-0.314391700288273,-0.571189063627215,-0.385119619654215
-0.056567433417553,-0.556562815869576,-1.61739370553331,-0.166739157532068,0.0252902555407161,0.0750848669795811,-0.0180318442407682,0.0382187842266773,0.0733716635791822,0.646866452258248,-0.32057208377344,-0.578242846588122,-0.380042816558409
-0.211894945706754,-0.121814344177617,-1.00052143563276,-0.168067617623309,0.0218979518356864,0.0619924133263665,-0.019705878116545,0.0384547252635594,0.074057049980712,0.640096122175832,-0.32728184477297,-0.58496852858802,-0.37546686807098
-0.343294886241726,0.229121758857349,-0.553968076898941,-0.17082971497867,0.0224340710042914,0.0542170878163238,-0.0214003647795549,0.0386763853777592,0.0746380974864254,0.632780191141227,-0.334681403822947,-0.591289045284676,-0.371422741038713
-0.379890180914139,0.45172821042692,-0.287288560991646,-0.174431788510068,0.0258379029459191,0.0500079266794867,-0.0231266722969986,0.0389177452475103,0.0751592225589045,0.624901084670616,-0.342863218800403,-0.597106949394749,-0.367976546203438
-0.310560043129404,0.522721247699378,-0.173620368296357,-0.177870187825905,0.030709732331757,0.0477005040856624,-0.0248881821786785,0.0392004834238987,0.0756477647127302,0.616490840041853,-0.351823053785033,-0.602310341671908,-0.365214779663876
-0.165936095938836,0.44241065653725,-0.165967850140682,-0.180238816716865,0.0355349739481464,0.045999685046093,-0.0266787272013923,0.0395317069552982,0.076116265658389,0.607636200724689,-0.361461546195183,-0.606793405017359,-0.363215585869456
0.00840096545392566,0.22887610324953,-0.215219743472784,-0.181012640564908,0.0388909898422867,0.0440908691306414,-0.0284849844878012,0.0399038367742504,0.0765667184292727,0.598465209752842,-0.371610820372756,-0.610479684853986,-0.36202119451484
0.173001190633306,-0.0879619559830718,-0.283963046665841,-0.180091777980091,0.0395951426738253,0.0415920772325641,-0.0302905065805262,0.0402962674368309,0.0769951331610887,0.589128475928595,-0.382065272848653,-0.613342177953462,-0.361614627575322
0.30327372378157,-0.46807550223419,-0.353025450408518,-0.177696551603635,0.0368145374779454,0.0384042567998081,-0.0320794482284448,0.0406783158375898,0.0773951148312506,0.579785725335761,-0.39260452533826,-0.615414932674393,-0.361904213877344
0.388142879452661,-0.863516706651045,-0.419376368300655,-0.174225616783083,0.0301561585287255,0.034539369758878,-0.0338390590703784,0.0410131693176231,0.077759832964044,0.570597150287513,-0.403011647939725,-0.616791219693322,-0.362724544272787
0.424781578497716,-1.22500256543335,-0.488546155005107,-0.17014714268895,0.0197131442635099,0.0299968791949649,-0.0355609228677386,0.0412625158315843,0.0780825142088132,0.56171263861363,-0.413092965274028,-0.617608176940656,-0.363858837241676
0.414536676925524,-1.51091222436478,-0.567162895564269,-0.165936699607452,0.00603315240972559,0.0247154559947338,-0.0372413420792206,0.0413912473149505,0.0783560758847617,0.553255138981853,-0.422699083981918,-0.618023458447552,-0.365077033514222
0.36200833369245,-1.69350619841756,-0.657923711217476,-0.162040122749981,-0.00998935760897977,0.0185871450134409,-0.0388812261910077,0.0413714662889542,0.0785725888898026,0.545301525640964,-0.431740833764624,-0.618191640049468,-0.366176453048
0.2762850563966,-1.75984599358931,-0.757438685019846,-0.158834803995155,-0.0272565364738078,0.0115074550848701,-0.0404856008247334,0.0411852368185403,0.0787230618902941,0.537869001385083,-0.440193488423817,-0.618246252620792,-0.367012535506122
0.171074120299852,-1.70941267510031,-0.858437030182831,-0.156584156307291,-0.0446032477220495,0.00342519856147245,-0.0420626956262456,0.040825937897561,0.0787977251585258,0.530915872605147,-0.448085640880968,-0.61828995251607,-0.367512080440743
0.0616244400618804,-1.55076468960622,-0.955390622751328,-0.155406811701101,-0.0609045524503758,-0.00564681765058257,-0.0436226504662876,0.0402983988966989,0.0787866170630803,0.524358933427154,-0.455476319416818,-0.618392454464152,-0.367668061772366
-0.0382782803453211,-1.2985979060881,-1.04738931035872,-0.155276229098137,-0.0751517833336411,-0.015663595263517,-0.0451760656702838,0.0396181172177788,0.0786800649985098,0.518096554608473,-0.462433751640886,-0.618593160576046,-0.367523451135711
-0.115316645821233,-0.973799887942046,-1.1329667158795,-0.156030351924589,-0.0865141902085854,-0.0265682533420924,-0.0467325985753974,0.0388097873500676,0.0784689057554817,0.512023139957576,-0.469027464688465,-0.618904894864126,-0.367154289950587
-0.154738178435887,-0.606256497980303,-1.20203324495621,-0.157366774241493,-0.0944148900429908,-0.0382461310936552,-0.0482995842062279,0.0379051419488098,0.078144833833303,0.506033821639731,-0.475330196375499,-0.619317290392367,-0.366656609910928
-0.143466745837511,-0.234582910506763,-1.23586550533637,-0.158843947058479,-0.0986195049902198,-0.0504385027925023,-0.0498806378127277,0.0369399699736437,0.0777014106638722,0.500028186909932,-0.481418725606887,-0.619799382241168,-0.366137335851008
-0.0775894548363958,0.0994311435281741,-1.21623022787013,-0.159935376257467,-0.0992956817299064,-0.062701859405919,-0.0514745344293074,0.0359503940400431,0.0771357088528801,0.493915968467213,-0.48737040416974,-0.62030187766833,-0.365708471044443
0.0340162134018777,0.356872351970107,-1.13506379563309,-0.160139390660259,-0.0970145821572087,-0.0744612074708193,-0.0530749082638961,0.0349688427206075,0.0764498935184964,0.48762063232632,-0.493257882612863,-0.620762707922064,-0.365481108435472
0.175823253223176,0.505538058835792,-0.998608219347427,-0.159076341522752,-0.0927029480079728,-0.0851324454931062,-0.0546709869248111,0.0340202550697816,0.0756519252536768,0.481080225725813,-0.499141737714754,-0.621118914666349,-0.365555243335933
0.336074894812356,0.522399524123328,-0.824773757628014,-0.156502998978193,-0.0875636779979709,-0.0942522333253676,-0.0562488836273159,0.0331189219397519,0.0747550018595844,0.474249925705138,-0.505059740943956,-0.621321890602722,-0.366006522215321
0.511784735437207,0.39472223028025,-0.635199128964588,-0.152249849022564,-0.0829784871307467,-0.101554975705715,-0.0577926478673196,0.0322662111141083,0.073775965814429,0.467108738718316,-0.511015728535207,-0.621349179058423,-0.366875386318079
0.707014148632949,0.120538075281181,-0.447069201947247,-0.146142002797832,-0.0804026035077332,-0.106969195307658,-0.0592846071264216,0.0314493056609159,0.0727333449593621,0.459668405293447,-0.516973178858312,-0.621208137425472,-0.368163196846844
0.92960819371516,-0.288654472846343,-0.269843697391372,-0.137945039281711,-0.0812436034003526,-0.110556637751736,-0.0607050423368193,0.0306410746263755,0.0716457157940652,0.451982075299257,-0.52285526824504,-0.620931733048045,-0.369835578291941
1.18767960146476,-0.800970888187082,-0.106017669080302,-0.12734474850143,-0.0866921481103134,-0.112438822531478,-0.062031491275735,0.0298013958688221,0.0705307384926491,0.444151185311695,-0.528549814658992,-0.620570045655582,-0.371830117722047
1.48385638204538,-1.35690435114214,0.0487212993429685,-0.113973216779498,-0.0974819422117531,-0.112728182327549,-0.0632380811021397,0.0288805254172118,0.069404903468354,0.436326473459129,-0.533918992932962,-0.62018018467986,-0.374067181231697
1.81055256452589,-1.87184228617949,0.207309125136996,-0.0974873202422604,-0.113626093303155,-0.111450908152533,-0.0642953837872485,0.0278249852396373,0.0682840080159536,0.42869736358253,-0.538815252299783,-0.619814603872703,-0.376465869864234
2.1521657933129,-2.25539915623408,0.391695202633856,-0.0776598766486853,-0.134262718420016,-0.108458764461063,-0.0651711197717032,0.0265855411810214,0.0671844596528856,0.421470280283885,-0.543099990631087,-0.619507904068657,-0.378965908506815
2.49409278319652,-2.44147418004951,0.627481603950245,-0.054414731961757,-0.157747503006228,-0.103365758375527,-0.0658314928147554,0.0251254900738902,0.0661253370387026,0.414846072309839,-0.546655729876053,-0.619265106441408,-0.381550753146802
2.83190968906545,-2.41232721039256,0.932065584556139,-0.0277708677960659,-0.182016927863232,-0.0955709003803794,-0.0662424208135445,0.0234266679195429,0.0651306537449231,0.409007913841873,-0.549385472352319,-0.619054790193535,-0.384264617056236
3.17356032490236,-2.20328437744024,1.3003144082109,0.00227033407815438,-0.20509540370719,-0.0844118783639284,-0.0663699234821341,0.0214911062616908,0.0642307398512016,0.404123439036552,-0.551201663240438,-0.618807805898,-0.387218119180841
3.53249608987471,-1.88664932608581,1.69504132393463,0.0358144679564209,-0.225545490129614,-0.069437977650585,-0.0661794994719612,0.0193379017925068,0.063461490571129,0.400357788713575,-0.552011915534604,-0.61842105154839,-0.390578915362794
3.91470807680595,-1.54282003234052,2.04954648549283,0.0730643405942054,-0.242693254826539,-0.0507179165508319,-0.0656351054292081,0.016996708067726,0.0628607111001219,0.397890950213149,-0.551708058633035,-0.617766265715208,-0.394545118740725
4.30604071768313,-1.23117676749463,2.28341726419881,0.114181936371032,-0.256563656730508,-0.0290559757497579,-0.0646988740443819,0.0145004235099408,0.062461841638619,0.396930030212154,-0.550163833523834,-0.616703189361933,-0.399303748578644
4.66908862275512,-0.973048699914496,2.32408234172224,0.159071434877605,-0.267585201972347,-0.00602135566753681,-0.0633326071881387,0.0118796792164265,0.0622864549815325,0.397705602187677,-0.547245405927563,-0.615094691662098,-0.4049830119509
4.95524395310284,-0.752975674738043,2.12382754163511,0.207206949561275,-0.276215741750404,0.0162153158018657,-0.0615012152659443,0.00916067449781272,0.0623374247822041,0.400445465507947,-0.542835907382124,-0.612820042322979,-0.411611713314881
5.12569341173976,-0.53528630596416,1.66673684967854,0.25762548818987,-0.282657469558708,0.0351652598110497,-0.0591770530771886,0.00636630844126716,0.0625943276602687,0.405330052691903,-0.536869825758475,-0.609783531655125,-0.419097104615441
5.16792219044856,-0.285092820950664,0.967712498467161,0.309107418005193,-0.286759783098076,0.048334628604394,-0.0563433885462133,0.00351922217798324,0.0630118271023459,0.412444898206374,-0.52936663026384,-0.605918966292117,-0.427226383775783
5.10008192651445,0.0182813755616467,0.0711526591956433,0.360461290394389,-0.288094258229815,0.0535260764453238,-0.0529955450042154,0.000644951971343779,0.0635211306275945,0.421748128974767,-0.520449852560053,-0.601191565691457,-0.435693892564445
4.96387596246862,0.379391805548705,-0.946874621537706,0.410794931643685,-0.286106310229057,0.0491445886862293,-0.049139263894025,-0.00222605087095058,0.0640344839532523,0.433064276271853,-0.510340912704632,-0.59559732181076,-0.444152356392251
4.80863910528159,0.791261960646252,-1.97946065070356,0.459671358786818,-0.280253459302876,0.0345100343776387,-0.0447869324418725,-0.00505784971861024,0.0644527570685716,0.446104961796886,-0.499325661523142,-0.589161057681921,-0.45227590574316
4.67235305596935,1.23810718379644,-2.9009969038797,0.507090171397453,-0.270107031485456,0.0101048686573382,-0.0399531247909511,-0.0078096521725519,0.0646758315837465,0.460507226092596,-0.487703721176541,-0.581934418865972,-0.459815731795011
4.56717092941256,1.69078684874413,-3.59207256970478,0.553301643128744,-0.255462979227547,-0.0223633566579685,-0.0346511657183201,-0.0104375022261169,0.0646145391437433,0.475879678542878,-0.475737370062419,-0.573991726725512,-0.46663260058282
4.47258373141738,2.1054127139403,-3.9719019150351,0.598514268237275,-0.236482399318918,-0.0601861070290521,-0.02889208616149,-0.0128972291188492,0.0642017918253082,0.491849165236086,-0.463615023601171,-0.565421846388543,-0.472698259119305
4.33798964154779,2.44166678906843,-4.02364100249464,0.642580986906482,-0.213747419708668,-0.100166699564085,-0.0226866098857713,-0.0151483782139872,0.0634000277923426,0.508088270823973,-0.451451246358962,-0.556309524562106,-0.478077184242805
4.09635115043186,2.67968466501032,-3.79633778166995,0.684766542670762,-0.188141080343068,-0.139269471432292,-0.016049872237885,-0.0171578207142459,0.0622028469373607,0.524307720603249,-0.439337140454684,-0.546703561579505,-0.482907348141661
3.68572074897234,2.80434375898509,-3.3822563928523,0.723690753972164,-0.160721356127885,-0.175165320252288,-0.0090075857546704,-0.0189021328966006,0.0606306729789378,0.540249233254753,-0.427387122935501,-0.536609261996118,-0.487361788670951
3.06821431834352,2.79207590746843,-2.88221125777293,0.757474281113124,-0.132739675700411,-0.206490536452798,-0.00160176057924396,-0.0203694380557421,0.0587223936954124,0.555724497262874,-0.415700037602725,-0.526045816307609,-0.491568470331734
2.23608523694146,2.64252633039618,-2.37625001111572,0.784009630693931,-0.105567082415881,-0.232785720744626,0.00610565897979131,-0.0215609718463236,0.0565260124094252,0.570659089773585,-0.404271172854772,-0.51512206401335,-0.495542411125462
1.20772290672243,2.40770857329095,-1.91411383444926,0.801242523216631,-0.0803163258022394,-0.254240417919835,0.0140319197493441,-0.0224903888874142,0.0540908817161029,0.585062422132706,-0.392988326794733,-0.504036135998367,-0.499209085273018
0.0225794390112717,2.15599706694396,-1.52480622583536,0.807407886749681,-0.0574982155058585,-0.271437896168642,0.0220751717991757,-0.0231794615939546,0.0514624901456606,0.598941858727941,-0.381737475826879,-0.492993984513287,-0.502495851372481
-1.26445691564062,1.91065076406198,-1.22761162382465,0.801212351170915,-0.0371653942556224,-0.285202863364326,0.0301182729887787,-0.0236527796427621,0.0486792863479957,0.612256540173378,-0.370486308816174,-0.48214979392048,-0.505384408363703
-2.5927052414084,1.65163171808395,-1.02980686453771,0.781940392190051,-0.0193543997496864,-0.296492833753522,0.0380340367055835,-0.0239353786127886,0.0457708078624065,0.624945171966961,-0.359250251595431,-0.471635543924468,-0.507880598636015
-3.9065105024542,1.37459881647796,-0.917973787496041,0.749458165275119,-0.00422366498167048,-0.306234614961075,0.0456910294929093,-0.0240532689364454,0.0427571706188335,0.636964606292578,-0.348018916342571,-0.461616136016164,-0.50997006497224
-5.1596961277902,1.11521771579611,-0.861445601721837,0.704140983928279,0.00822499977490623,-0.315134589854549,0.0529590252389263,-0.0240332622624792,0.0396503245947554,0.648283900246297,-0.33676284238316,-0.45228290644297,-0.511623831746493
-6.31258145304071,0.91146582355294,-0.830728284286754,0.646793447828505,0.0183579995668578,-0.323598337231976,0.0597136973977103,-0.0239003472657704,0.0364566599593227,0.658859440116804,-0.325498672941486,-0.443806279976314,-0.51282632336483
-7.32936776183169,0.771885785912329,-0.812853492317938,0.578597553558525,0.0267743397093905,-0.331819124062384,0.0658406524046454,-0.0236746855693891,0.0331795726528509,0.668637224284454,-0.314307320150137,-0.436321839431645,-0.513574165273338
-8.18122845886192,0.689108428925832,-0.810369936853701,0.501058424259438,0.0340788928787877,-0.339938119155626,0.0712389322937352,-0.0233704194064483,0.0298207864367609,0.67757573258302,-0.303289481011672,-0.429954482607012,-0.513853831559511
-8.85133904689026,0.66089205747155,-0.830229263210994,0.415909438535058,0.0408284774059809,-0.348143993103334,0.0758237716077077,-0.0229958825550244,0.0263803758754661,0.685655661199633,-0.292532242059594,-0.424827219292539,-0.513637065804884
-9.33573189963795,0.686022474842226,-0.873717712469566,0.324987935606798,0.0475626321627561,-0.356666605929121,0.079528258478417,-0.0225539270071807,0.0228563228803038,0.69286994543879,-0.282122686191557,-0.421036959729748,-0.512899509831349
-9.63895473090118,0.752501007569945,-0.930997273041849,0.230128354258484,0.0547548316700233,-0.365693058804062,0.0823038399277434,-0.0220423396880168,0.0192445245566379,0.69921133046835,-0.272175372305296,-0.418628647127415,-0.511638679010318
-9.76805520618472,0.839641520065833,-0.979572201439855,0.133107156377436,0.0627151264034086,-0.375248784123855,0.084120017480923,-0.0214549898976497,0.0155398153419983,0.704667792896122,-0.262841804608037,-0.417589920385826,-0.509878559852695
-9.7288455849629,0.927685048745226,-0.986299955103186,0.0356365042260786,0.0715513413426702,-0.385081022853954,0.0849637357839406,-0.0207836575589193,0.0117381663071093,0.709223529253881,-0.25430396390698,-0.417858960792536,-0.507666591750185
-9.52545915953441,1.00285924277254,-0.912149882783918,-0.0606211676920267,0.0812036448954654,-0.394576149990774,0.0848388124666108,-0.0200198826277286,0.00783988044288563,0.712862096562795,-0.246761403644858,-0.419334361787872,-0.505069434809981
-9.16165788690878,1.05876167412267,-0.717140166779297,-0.154042901119862,0.0915113315751477,-0.402725478185974,0.0837654921225514,-0.0191563077453755,0.00385337230200189,0.71557063405637,-0.240413829215866,-0.421884681499725,-0.502168471644532
-8.64235922173545,1.09699178700779,-0.363859843052768,-0.243049134858701,0.102289680976006,-0.408133356182519,0.0817800319426586,-0.0181873026826198,-0.00020092186984058,0.717343544913893,-0.235443357197834,-0.42535593529059,-0.499056101490454
-7.97417797006976,1.12348273243854,0.177859966896405,-0.326117969013346,0.113391635668444,-0.409066233510685,0.0789341964232983,-0.0171088960993975,-0.0042869198183066,0.718184343042923,-0.232002408714567,-0.429575023281132,-0.49583407621064
-7.16460889273543,1.13997121855679,0.92221889904991,-0.401798051522991,0.124708487518627,-0.403568717128338,0.0752946163206167,-0.0159183954834622,-0.00835009457150171,0.718107102280719,-0.230202536508594,-0.434353854186085,-0.492611115579715
-6.22141711599424,1.1391009857603,1.85904056781747,-0.468714329762258,0.136103430635419,-0.389665297741385,0.0709420544141904,-0.0146143358926919,-0.0123162646458503,0.717140525776132,-0.230091944446327,-0.439502184284699,-0.489494630613473
-5.15393377385286,1.10990573931534,2.95470937167338,-0.525577232407112,0.147348046356004,-0.365599425991315,0.0659705966033435,-0.0131970785077348,-0.0160925882645138,0.715335622634033,-0.231622093195177,-0.444847947109484,-0.486576260094081
-3.97555571673527,1.04790103362069,4.16219342630771,-0.571210828055672,0.15813666231589,-0.330017789948794,0.0604866563010296,-0.0116696549643753,-0.0195706743442144,0.712774056675014,-0.234623890994659,-0.450252997810939,-0.483918393810188
-2.70505896944469,0.95865545692024,5.42871838028454,-0.60460004968219,0.168169026863801,-0.282066108863217,0.0546076019123403,-0.0100381265184769,-0.0226310938382744,0.709572927268322,-0.238814413118863,-0.455614713601582,-0.48154871999031
-1.36645978002853,0.852158965264938,6.69454647217066,-0.624943791625176,0.177222681069934,-0.221452662548325,0.0484598827058035,-0.0083111679788082,-0.0251486876953321,0.705884305429943,-0.24383467014714,-0.460855205778181,-0.479462699580555
0.00897744636874132,0.734321202735959,7.88747851649996,-0.631717351489093,0.185154664005144,-0.148545415552356,0.0421765769902321,-0.00649928125343281,-0.0269986780858355,0.701890603121859,-0.24930036382567,-0.465907238726449,-0.477628888100289
1.37593625010547,0.602837397670969,8.91930770884662,-0.624778931202341,0.191840039102385,-0.0645143623730072,0.035894095576775,-0.00461430773789516,-0.0280639769754623,0.697798229304927,-0.254842929328936,-0.470707685097135,-0.475990533246672
2.66813074522957,0.451304276876219,9.68838994287062,-0.604544744421284,0.197110329570328,0.0285212479381948,0.0297474771986568,-0.0026695558945316,-0.0282439425476364,0.693831846258414,-0.260128029093929,-0.475204929340235,-0.474458694438296
3.80192796901665,0.278385561880384,10.0924153692338,-0.572180599045672,0.200758360859317,0.127422396551332,0.0238638504813221,-0.000680212442383371,-0.0274642243251888,0.690226847315997,-0.264860507938739,-0.479373729059861,-0.472902356164458
4.69591010314981,0.0907167435800061,10.0519730305742,-0.529677556880459,0.202603454481825,0.228141460602988,0.0183545597016914,0.00133659663432234,-0.0256864050394172,0.687213077231659,-0.268796208212476,-0.483222005366077,-0.471151014497875
5.29767031076236,-0.105319240695531,9.53743493162987,-0.479695803006517,0.202530024091454,0.326085622466624,0.0133076929022565,0.00336226402718874,-0.0229152696240691,0.684988702937264,-0.271761519764506,-0.486785020343884,-0.469016521236103
5.60415486189487,-0.309683895315556,8.58471476065179,-0.425172825338849,0.200454590506605,0.416693492980648,0.0087833497605297,0.00537718710017903,-0.0192013740468327,0.683692759403255,-0.273660250994532,-0.490121047289506,-0.466321387852852
5.66904941977169,-0.520957451258733,7.28847954721156,-0.368792952126135,0.19630096586894,0.496056586572581,0.00481352087320478,0.00736096488205676,-0.0146376236490666,0.683383783757481,-0.274461973888123,-0.493317670224332,-0.462919977135553
5.59082090269389,-0.725216766260732,5.77545582603481,-0.312479748709426,0.190069676876549,0.561373385491428,0.00140715736902698,0.0092928180957842,-0.00935047378874656,0.684027312662404,-0.274189459916995,-0.496494319008185,-0.458715779971515
5.47447501316686,-0.896684131870704,4.17183653101442,-0.257139417325741,0.181959754481098,0.61110696932929,-0.00144093846114886,0.0111529652525724,-0.00348807201464296,0.685498394604691,-0.27291322284067,-0.499784201276364,-0.453680588021635
5.37671643306807,-1.00872885897717,2.57811129534176,-0.202869608290185,0.172432271622065,0.644853830513687,-0.00374098358922849,0.0129249253830883,0.00279173198457192,0.687605668133662,-0.270742056203027,-0.503300102941621,-0.447868496918873
5.26019600317221,-1.04514649957136,1.05737058323205,-0.149671194304603,0.162162476924529,0.663028361959172,-0.00550368760220243,0.0145978991258212,0.00933114294693621,0.690131683960536,-0.267806667331802,-0.507101510778489,-0.441413531161656
4.98401219406272,-1.00322442714154,-0.363120650759158,-0.0984363015140469,0.15192020438617,0.666496733674152,-0.00674422508129568,0.0161683125323747,0.0159787684251028,0.692872915907799,-0.264250341962126,-0.511179248024972,-0.434505069663115
4.34960339749628,-0.885742757102833,-1.67919831436898,-0.0517543717518707,0.142474950560155,0.656282260901127,-0.00749517844762527,0.0176402883071063,0.0225926633979792,0.695660790904606,-0.260241647974863,-0.515469016964437,-0.427343001822919
3.19985760131611,-0.695773391486224,-2.88975262230411,-0.0139932149534275,0.134566951912416,0.633434628270377,-0.00782391638115176,0.0190254978194692,0.0290412478438367,0.698347286452955,-0.256018055466078,-0.519894470898996,-0.420089945021083
1.53516700641815,-0.452482420774054,-3.97927098394285,0.00969575988962497,0.128825254946321,0.599086632291758,-0.00784540365647077,0.0203424588537629,0.0352038541466474,0.700756292539838,-0.251949415458586,-0.524420780199773,-0.412849798123433
-0.422866371707928,-0.215366183616599,-4.91069910059268,0.0152711148675573,0.125485594019574,0.554633903921697,-0.00772056928268486,0.0216140130985924,0.0409724568277147,0.70263995406383,-0.248568694802522,-0.529083928718634,-0.405685709988662
-2.27834141527927,-0.0852152091248447,-5.62574154815321,0.00177892773700251,0.123982269151073,0.501948822730583,-0.00763531906966206,0.0228613524144456,0.0462553704609761,0.703693150621623,-0.246503183577602,-0.53397233116979,-0.398654837923008
-3.60617233327848,-0.173335467651014,-6.05874386365634,-0.027629789201405,0.1226890978624,0.443523517724151,-0.00776457337698407,0.024094709249513,0.0509827321632498,0.703634250276288,-0.246297717727993,-0.539173747723348,-0.391826423108584
-4.12353417553547,-0.544732328280569,-6.17365135725517,-0.0662644699410936,0.119098340977949,0.382358663672209,-0.00823404467269657,0.0253036464437147,0.0551121430702316,0.702301110589774,-0.248208930061406,-0.544727039953112,-0.385276431988854
-3.80484053940741,-1.15117298022957,-5.99445005278521,-0.105892491711427,0.110618396530604,0.321515278674623,-0.00909482948095917,0.0264522301312575,0.0586315127819657,0.699703311506821,-0.252086545245116,-0.550611940194732,-0.379070100229183
-2.88163192856151,-1.8136839206075,-5.5899153273452,-0.13931100224689,0.0957936941216253,0.263590573826587,-0.0103208469507508,0.0274842905845186,0.0615570420444718,0.696010186285818,-0.257419228426119,-0.556773793273296,-0.373240009306275
-1.7290714276623,-2.30096102762497,-5.02826147902633,-0.162350667223628,0.0752200514756693,0.210496811847345,-0.0118291552981033,0.0283393593125051,0.0639274789728414,0.691487032981185,-0.263534033097951,-0.563146935965113,-0.367778500093617
-0.702995533174135,-2.4520745924313,-4.35023951871007,-0.174497150223429,0.0514544554705943,0.163601428911279,-0.0135133943853386,0.0289727318472364,0.0657979701766346,0.686406842546497,-0.269843554192044,-0.569656584942936,-0.362658900342326
-0.0162160755590958,-2.24463017216779,-3.5824321396858,-0.178079356462714,0.0279705137428052,0.123935192671915,-0.0152762769187693,0.0293698566933034,0.0672356532845505,0.680979093110284,-0.276002229149005,-0.576220729081237,-0.357854601239892
0.291414021576325,-1.76740247598855,-2.76859490327021,-0.176689514928247,0.00790993259722983,0.0921771795097508,-0.0170501212757241,0.0295492589250036,0.0683162151454588,0.675324144814305,-0.281918824821097,-0.5827663454245,-0.353330528376607
0.3059343644221,-1.14590251078457,-1.98227076591188,-0.173688921193873,-0.00665701024142946,0.0684199732164561,-0.0188020134563347,0.0295555235367826,0.0691192009090899,0.669479257174748,-0.287692917481111,-0.589235696299588,-0.349043842017439
0.16576589704344,-0.494337887475304,-1.30820967966682,-0.171316568082164,-0.0148586301375225,0.0519646930411784,-0.0205270409027149,0.0294479453348878,0.069721124240378,0.663413196056317,-0.293548351307504,-0.595566385312098,-0.344982575544433
-0.000815530345187332,0.092685250927496,-0.810301828687353,-0.170477964444292,-0.0168673112250552,0.0413692575520233,-0.0222360135653472,0.0292893156280749,0.0701877939933441,0.657050910440914,-0.299764953460034,-0.601666723803844,-0.341207015216597
-0.112050700198395,0.541572822725075,-0.5097264978929,-0.171028443792629,-0.013696438761586,0.0347662379717378,-0.0239435456065318,0.0291364968781417,0.0705684714709629,0.650311993821526,-0.306598063308972,-0.607410253549868,-0.33785310735517
-0.143498164571811,0.806941662462566,-0.383486718855308,-0.172292336312098,-0.00695428424044145,0.0302972939406125,-0.0256601495070554,0.0290332432631316,0.0708937891305246,0.643147998026956,-0.314211319988595,-0.61265003431571,-0.335099738104797
-0.117314371860318,0.873604714825922,-0.380426700598473,-0.173582547189878,0.00144802974120733,0.0264748488959594,-0.0273895239245653,0.0290057119906354,0.0711776498447075,0.635560217750944,-0.322649885852504,-0.617243874468389,-0.33312198997213
-0.0767226769057736,0.751473692770071,-0.445694562254137,-0.174538880629327,0.00957300387439364,0.0223413646343121,-0.0291301310636614,0.0290608171587134,0.0714217309123588,0.627597038145165,-0.331848350551482,-0.621084487037596,-0.332043204882924
-0.0591395582612368,0.472412348770096,-0.541427606462242,-0.175204340000781,0.0156920161773008,0.017402875843346,-0.0308788471668119,0.0291871422589719,0.0716204521147471,0.619343246887711,-0.341651873530663,-0.624127360622476,-0.331893021273419
-0.0804596579384309,0.0892697857431295,-0.65339828333949,-0.175888484277398,0.0185000089450733,0.0114258684469531,-0.0326343112882028,0.0293581023845838,0.0717645958361986,0.61090853901693,-0.351843867072914,-0.626404862642888,-0.332586226739358
-0.133972980735882,-0.332330106536766,-0.78389880372994,-0.176946795666388,0.0172842894363115,0.00423650506422176,-0.0343984876879217,0.0295370238764907,0.0718429077037545,0.602413972591355,-0.362182900931439,-0.628019281648936,-0.33393522392336
-0.199680792794145,-0.729786525518109,-0.939338936709601,-0.178601212729657,0.0119732883712434,-0.00438256158536017,-0.036176227729902,0.0296833117655285,0.0718421774211488,0.593976580844054,-0.372440944706645,-0.62911997155044,-0.33568977570251
-0.256726387443757,-1.05554734201339,-1.11919736892255,-0.180869396826466,0.00304620112879226,-0.0146781210609051,-0.0379735807776826,0.0297584092130286,0.0717468740079175,0.585695423387789,-0.382429944890747,-0.6298765121059,-0.337585230380071
-0.291933499041199,-1.27950998835586,-1.30991256171089,-0.183598844454509,-0.00862950342784768,-0.0268265486614565,-0.0397959219840874,0.0297304927015334,0.0715393506593057,0.57764013141543,-0.392014127617249,-0.63045567770207,-0.339385386809856
-0.301088355276796,-1.38632429474902,-1.48619739479832,-0.186550101921718,-0.0219590927481658,-0.0408099763913868,-0.0416466667159686,0.0295775497206533,0.0712011680340415,0.569841785241286,-0.401113242310428,-0.631004329469377,-0.340913541571968
-0.284698966233246,-1.37267473027905,-1.61889401567182,-0.189465186724887,-0.0357545057780998,-0.0563383113911218,-0.0435267431592016,0.029288981728022,0.0707154265951289,0.562288424363175,-0.409699910318917,-0.631638611221489,-0.342067794634396
-0.242827589119996,-1.24594660983682,-1.68422243036909,-0.192088967697272,-0.0488480303834728,-0.0728567715687105,-0.0454345139313124,0.0288659690472141,0.0700694511803298,0.554928719359328,-0.417791113246571,-0.632438912269214,-0.342820250816868
-0.172741071444028,-1.02401295841747,-1.66884406665766,-0.194152959195711,-0.0601982461295379,-0.0896249820012285,-0.0473657235657773,0.0283207376646491,0.0692570424124801,0.547684654868131,-0.425434564466658,-0.633448844048771,-0.343204767088566
-0.0701045496050019,-0.735006414982597,-1.56933050996505,-0.195353335496575,-0.0689937609013319,-0.105818732831726,-0.0493132550392387,0.0276747776294947,0.0682798238383153,0.54046920335287,-0.432693505515018,-0.634676605685367,-0.343300126285936
0.0673844617375563,-0.415819636360024,-1.38897577375311,-0.195353084131531,-0.0747483090628387,-0.120613142197701,-0.0512667871373793,0.0269560672796739,0.0671476644631682,0.533202368261717,-0.439634438898652,-0.636098224242278,-0.343213991163216
0.235547250866324,-0.109247082271412,-1.13605714593441,-0.19382457376413,-0.0773740605607895,-0.133241184743523,-0.0532126754268576,0.0261954554315557,0.065878392828462,0.525820972610496,-0.446319930535366,-0.637662953622987,-0.343069645912702
0.421453466203071,0.139944714041012,-0.825827956785927,-0.190525718374402,-0.0772209903067352,-0.143053488204509,-0.0551344268875502,0.0254224801772181,0.0644969194637219,0.518281573660433,-0.452805500020131,-0.639301239020272,-0.342994628737433
0.606471953059037,0.290767098094952,-0.484333948194847,-0.18537223947371,-0.075067849150849,-0.149607175676797,-0.0570139166767908,0.0246610359799302,0.0630336161443153,0.510559293709792,-0.459137626244154,-0.640935199613194,-0.343109192051507
0.773667705065278,0.313972007327039,-0.148502813501196,-0.178457689378708,-0.0720445715285327,-0.152774237432662,-0.0588330663210529,0.0239254738765333,0.061521709078768,0.502647078712157,-0.465349392953213,-0.642490874014014,-0.343513221796367
0.914546543974925,0.20035609374904,0.141050964112199,-0.170002766329125,-0.069473348927946,-0.152814374626991,-0.0605753685995921,0.0232178842742509,0.0599937660184698,0.49455844581494,-0.471452594120429,-0.643910718090027,-0.3442722502599
1.03186135785566,-0.0340228079380791,0.352376050842768,-0.160256875015591,-0.0686421004036848,-0.1503501174996,-0.0622266668063156,0.0225273070275927,0.0584779435578368,0.486332202572102,-0.477430326595345,-0.64516308333983,-0.345406815051286
1.13795160104384,-0.349653017400407,0.474746292320422,-0.149393958416712,-0.0705608974351709,-0.146217383731168,-0.0637749209734772,0.0218312920383984,0.056995106051683,0.478033643746204,-0.483237425809575,-0.646243685233711,-0.346892670777598
1.24865586115925,-0.694200614735116,0.52588177415541,-0.137447069301316,-0.0757805835006422,-0.141217121346173,-0.0652091261120673,0.0210995846337194,0.0555579335262963,0.469748573700674,-0.488811189216686,-0.647167033790033,-0.348675679074642
1.37635599905601,-1.01729725979334,0.548207623463577,-0.124308158195858,-0.0843384907780781,-0.135849552305463,-0.0665179022495532,0.0202989892623258,0.0541726001580381,0.461573496281618,-0.494085148630231,-0.6479525835998,-0.35069534191339
1.52793077513123,-1.28072096165935,0.59374748139141,-0.109772872520541,-0.0958289997901352,-0.130142654728572,-0.0676883074031352,0.0193981518094847,0.0528426391228679,0.453609019095976,-0.498996277769786,-0.648612624716088,-0.352906837034355
1.70748158426431,-1.45971614065873,0.705560767334664,-0.0935819589191819,-0.109531603206519,-0.123648991432326,-0.0687050815603338,0.0183713487945014,0.0515736808920634,0.445959738842599,-0.503483300121784,-0.649144750892796,-0.355296453990535
1.91861464973351,-1.53938266478113,0.90524018806473,-0.0754376259448116,-0.124527515138512,-0.115597864602713,-0.0695501794846538,0.0172010532027763,0.0503774466118882,0.438738098572834,-0.507480749395183,-0.649528175507165,-0.357890093571101
2.16421693177338,-1.51337872757643,1.19013816450948,-0.055009616232896,-0.139791740005094,-0.105123850787226,-0.0702024156955423,0.0158794569270582,0.0492738380349385,0.432067422088537,-0.510914172567735,-0.649722897203998,-0.360755606869854
2.44564364429915,-1.38805430576242,1.53751280338612,-0.0319464615481522,-0.154299323076582,-0.0914884738951325,-0.0706371960844475,0.0144090016116499,0.0482907764115267,0.426081925784059,-0.513698223373502,-0.649670985204339,-0.36399991594323
2.76262649195084,-1.18757526069483,1.91046075339886,-0.00589125906252108,-0.167177888813661,-0.0742514840585919,-0.0708263846875009,0.0128016155521987,0.0474620766217581,0.420926450434243,-0.515735565982031,-0.649299621528392,-0.36776045299775
3.11339676551824,-0.952910147659176,2.26242245328049,0.0235027090292055,-0.177880733760225,-0.0533899459725794,-0.0707383274376675,0.0110763224393292,0.0468238694716023,0.416759415841138,-0.516914993721132,-0.64852554983845,-0.37218958849056
3.49364374688319,-0.733114582547989,2.53995145958578,0.0565517633955939,-0.186311275316055,-0.0293809543556322,-0.0703380550755435,0.00925536239394782,0.0464100149699612,0.413758401551553,-0.517110753194113,-0.647259499379578,-0.377432900711396
3.8923303458957,-0.572440398610707,2.68601913193664,0.0934954856638695,-0.192839468126642,-0.00325397934540433,-0.0695878188302462,0.00735960867673434,0.046246840301456,0.412124850143731,-0.51618622038289,-0.645409731217329,-0.38360288402306
4.28570695214195,-0.496900971967333,2.64718127115195,0.134399523958439,-0.198186592884326,0.0234091447226544,-0.0684483437821346,0.0054044783716795,0.0463476161283423,0.41208238640929,-0.51400455473271,-0.642886675415463,-0.390748188861454
4.63808204986779,-0.505644609441665,2.38364065860748,0.179032320772869,-0.203199738696164,0.0485603764240673,-0.0668811845584781,0.00339754671377705,0.0467074637340759,0.413861072169115,-0.51044915127465,-0.639610885472852,-0.398821504047431
4.91455471776516,-0.572697388485714,1.87605731727033,0.226809356415415,-0.208591866590595,0.0698559883560722,-0.0648519761725367,0.00133858868734326,0.0472995455579766,0.417664458116742,-0.505453684285285,-0.635523052079874,-0.407656011538602
5.09680717900707,-0.656558392436636,1.1278069785657,0.276880017703657,-0.2147385634,0.0848724318878681,-0.0623335293019413,-0.000778063462609713,0.0480731876591963,0.423626942015388,-0.499034230856501,-0.630592898929848,-0.416962403882415
5.19080729720128,-0.710148893613701,0.169314906446394,0.32833194188908,-0.221572517735045,0.0913551633655444,-0.0593074695039776,-0.00295961886828494,0.0489543256354633,0.431776019551083,-0.491309882829114,-0.624824554809217,-0.426354715797221
5.22348039975952,-0.688702136570194,-0.933148215303897,0.380417232178265,-0.228567190790759,0.0875331188738726,-0.0557637236336409,-0.00521031741091396,0.0498487670466604,0.442014985211132,-0.482496641192024,-0.618257181675065,-0.435405330002314
5.22884751335504,-0.556632971434756,-2.07134895137461,0.432692723548219,-0.234794284235577,0.0725077550930959,-0.0516981738550085,-0.00752712478604564,0.0506489714164953,0.454135684182906,-0.472865254650549,-0.610962706768272,-0.443715902616057
5.22855952836546,-0.294813489313882,-3.10306611615575,0.484993610561203,-0.239051934444114,0.0466328018080598,-0.0471097421844613,-0.00989635587944409,0.051244674201001,0.467857420509269,-0.462670070706627,-0.603044709368869,-0.450979953267276
5.2164441080725,0.0924196829811266,-3.88276845940408,0.537232480547774,-0.240064321380571,0.0117007509828765,-0.0419986117289165,-0.0122919371585675,0.0515363419649557,0.482872060656879,-0.452081164825111,-0.594636190574887,-0.457017498905607
5.15556014060039,0.576406829936746,-4.30756733421538,0.58910635359552,-0.236720606720776,-0.029253805932605,-0.0363669175582,-0.0146758617990743,0.0514485766902071,0.498867149511484,-0.441168257356766,-0.585883912112916,-0.4617815255793
