AccX,AccY,AccZ,VelX,VelY,VelZ,PosX,PosY,PosZ,QuatW,QuatI,QuatJ,QuatK
-0.372761508611375,1.63280947548402,2.38228909436993,-0.00749179264259095,0.00796109749626309,-0.000822693479071006,0,0,0,0.504520729806435,-0.350839727585207,0.50383257555664,0.607060997389457
-0.348362449021767,1.51164643404069,2.18981777053008,-0.011090910581203,0.023683610847189,0.0220525567835175,-9.29135161189697e-05,0.00015822354171726,0.000106149316522233,0.50446524858537,-0.351108322688036,0.503769281341378,0.607004340911732
-0.326533950568424,1.39874940344684,2.00332231388,-0.0144588907296003,0.0382358238379289,0.0430329731436564,-0.000220662522672986,0.000467820715142849,0.000431576966158103,0.504435509251569,-0.351347639236173,0.503801407637944,0.606863901605051
-0.307869237784755,1.29690671502746,1.82407569928246,-0.0176244048218125,0.0517143382336027,0.0621846791475572,-0.00038107900043005,0.000917571525500508,0.000957665227614171,0.504425627026316,-0.3515656759495,0.503935928193822,0.606634109302066
-0.294351921021341,1.2072665831012,1.65244878387352,-0.0206290087662893,0.0642354385275483,0.0795820175014256,-0.000572346068370559,0.00149732040930626,0.00166649871085908,0.5044277964014,-0.351774584337073,0.504180298062207,0.606308062850901
-0.288662645884215,1.12945904640019,1.48831577356161,-0.0235375797512634,0.0759193004783576,0.0953005562266898,-0.000793179010958322,0.00219809410433579,0.00254091157949966,0.504433275104409,-0.351989455267383,0.504541833094124,0.605877902721358
-0.293126363831441,1.06226437870055,1.3317796501152,-0.026440022950288,0.0868781514071636,0.109415749283162,-0.00104306702446608,0.0030120813637634,0.00356449310704892,0.504433517654043,-0.352226548605638,0.505027481458049,0.605335054078869
-0.308495132196804,1.00409444003701,1.18342315297973,-0.0294416285808756,0.0972101793041537,0.122006479236726,-0.0013224752821219,0.00393252301731998,0.00472160424964836,0.504421112993003,-0.352501248400476,0.505643395057304,0.6046709581896
-0.332426434293611,0.952947856332156,1.04378282137677,-0.032639734563774,0.106995624589302,0.133157225046597,-0.00163288209784515,0.00495355203678726,0.00599742277106497,0.504390335918333,-0.352826077637481,0.506394188681477,0.60387835997059
-0.358393620003896,0.906414106124237,0.912767753021969,-0.0360873329857078,0.116292668204886,0.142954693856679,-0.00197651743559255,0.0060699935007582,0.00737798236558135,0.504336981498423,-0.353209283308837,0.507282450991529,0.602952673261794
-0.376521381964338,0.862152588898779,0.789705763845229,-0.0397554061459953,0.125135735483303,0.151481777379103,-0.00235573113125107,0.00727713551919915,0.00885016472176026,0.504257245010702,-0.353654644156393,0.508308983720998,0.601892848096203
-0.376725923491226,0.818414547522529,0.673887270886715,-0.0435151408237195,0.133538804968712,0.158814458490852,-0.00277208386609964,0.00857050822145922,0.01040164590111,0.504145937658671,-0.354162851653498,0.509473491408661,0.600701514566754
-0.352711999191658,0.774039759689064,0.56505731089962,-0.0471558285875802,0.141501310308072,0.165023897337872,-0.00322543871315614,0.00994570879784315,0.0120208376802537,0.503994822699537,-0.354734034049131,0.510775007997138,0.599384580202741
-0.304693306749782,0.728020558948466,0.463508330314398,-0.0504363532677338,0.149011845704562,0.17018144148203,-0.00371339962243271,0.0113982745779063,0.0136968643743532,0.503791993310439,-0.355370241493486,0.51221169378668,0.597950499360387
-0.239543986129405,0.679025919945216,0.369856610704924,-0.053151037882576,0.156047311902333,0.174362982125215,-0.00423133657818426,0.0129235703659408,0.0154195864923894,0.503522883397944,-0.356076728930889,0.513780184475622,0.596409247957051
-0.168538509694285,0.625084340743856,0.284697932118687,-0.0551849485121408,0.162568097009081,0.177650470777422,-0.00477301651015785,0.0145166474104979,0.0171796537569026,0.503172895770021,-0.356861475802594,0.515474959323411,0.594770956218387
-0.103766703312217,0.563744168195105,0.208261690686558,-0.0565399727276196,0.168512473357078,0.180129984829537,-0.00533164111635665,0.0161720502623287,0.0189685560349374,0.502731108217758,-0.357732964565062,0.517288269132233,0.593044185126046
-0.0545284064357931,0.493079648623489,0.140264827870946,-0.057324946426806,0.173796826244473,0.181887333360413,-0.00590096571212878,0.0178835967603364,0.0207786426258871,0.502194106517286,-0.358696882757889,0.519210917208044,0.591234005391317
-0.0247710975264913,0.413180543496083,0.0801654155175189,-0.0577149420970638,0.178328361008373,0.183004200515444,-0.00647616515474812,0.0196442226966006,0.0226031002952664,0.501568594934117,-0.359753159769809,0.521233487871021,0.5893405295186
-0.0122990611735369,0.326979181322287,0.027702531052709,-0.0578937910410102,0.182029393435767,0.183558256186383,-0.00705420882043849,0.0214460114688214,0.0244359125787755,0.500871452490493,-0.360895117415556,0.523347010881699,0.587358841345618
-0.0101831006026973,0.239550110788918,-0.0166844225108285,-0.0579997000003377,0.184862273699626,0.183628062667181,-0.00763367627564523,0.0232804698044983,0.0262718441730434,0.500126860850784,-0.362111798743101,0.525542369835153,0.585280604304148
-0.00992942841293226,0.156201735857846,-0.051888406879945,-0.0580937607958622,0.186841266736162,0.183299914458316,-0.00821414357962623,0.0251389875066773,0.0281064840586708,0.49936164294699,-0.363392643281471,0.527808744377311,0.583096617826784
-0.00482852200248701,0.0804262367381017,-0.0767264721888778,-0.0581610486983856,0.188024640402444,0.18267155600106,-0.00879541762709747,0.0270133170423703,0.0299363414109677,0.49860085777838,-0.364732077435668,0.530132013982904,0.580799228703479
0.00816853303147852,0.012513598737143,-0.090890391004365,-0.058137846793687,0.188489573383122,0.181848187623183,-0.00937691210455784,0.0288958881112981,0.0317589401290889,0.49786530869287,-0.366131658663602,0.532494183650324,0.578383685197783
0.0285232558797465,-0.0507671569889705,-0.0958706030527121,-0.0579478859995772,0.188298539395166,0.180929098590986,-0.00995734076852416,0.0307798286751896,0.0335728265601598,0.497171517397466,-0.367598627838341,0.534874859588537,0.575847736541712
0.0532743392857994,-0.115008044652257,-0.0956229584735964,-0.0575323961741958,0.187469897190262,0.179986346721443,-0.010534742179393,0.0326586708581167,0.0353774037867219,0.496533787095149,-0.369141059464997,0.537255441976631,0.573189032132074
0.078275637059761,-0.185388913238248,-0.096522015929728,-0.0568681444429143,0.185968146204111,0.179040337787515,-0.0111067448824786,0.0345258610750886,0.0371725372092667,0.495967283973224,-0.370761064318223,0.539625347144375,0.570400886336228
0.0994497939371771,-0.263525418417206,-0.106071954331613,-0.055973015438376,0.183723808349137,0.178042083874297,-0.011670950681885,0.0363743208478548,0.0389579493175758,0.495490657289326,-0.372448661349494,0.541987558080641,0.567468492591214
0.114281976683011,-0.345926001600556,-0.130828101732503,-0.0548978547357214,0.18067678505235,0.176872299532064,-0.0122253050327555,0.0381963238148622,0.0407325212346076,0.49512692110323,-0.374179130320338,0.544360474993537,0.564367773438883
0.122895969225686,-0.424703946440778,-0.174478823774233,-0.0537054631566242,0.176823869115446,0.175360480842619,-0.0127683216222172,0.0399838270857012,0.042493685136481,0.49490175012604,-0.375915512742296,0.546774973582286,0.561067654802851
0.127647204481608,-0.490247847373665,-0.236809020047949,-0.0524462454385341,0.172249343949676,0.173318757561597,-0.013299080165193,0.0417291931510268,0.0442370813285021,0.494838992316094,-0.377616171165482,0.549267487099502,0.557535314193919
0.13118193674123,-0.535163335743359,-0.314091170064105,-0.0511455978828662,0.167122521837393,0.170578972549125,-0.0138170393818,0.0434260524799622,0.0459565699790557,0.494954818333169,-0.379244933064127,0.551871348219999,0.553742741322905
0.134456860217872,-0.557283603613603,-0.400575793308643,-0.049810902048517,0.16166052094391,0.16702035367035,-0.014321821881457,0.0450699676938687,0.0476445666101531,0.495253442461207,-0.380779318677235,0.554609540658566,0.549672080070035
0.13657274440994,-0.559739700627814,-0.490281251575071,-0.0484492521758243,0.156075638226006,0.16258078438402,-0.0148131226525787,0.0466586484897183,0.0492925723004249,0.495726517101326,-0.382213432930138,0.557490937168373,0.545318225356054
0.13658128320236,-0.548566228012865,-0.578546899954888,-0.0470769801882091,0.150534342386104,0.157251359564459,-0.0152907538143988,0.0481916983927788,0.0508917330201673,0.496355697892317,-0.383555814284965,0.560510102184881,0.540688804994817
0.135396045145842,-0.529649751558305,-0.662595823621335,-0.0457105916969145,0.145143496291551,0.151060361884666,-0.0157546916738244,0.0496700875861671,0.0524332916274129,0.497116257350043,-0.384825042977247,0.563649653897792,0.535802370876376
0.135995219680331,-0.50677071817818,-0.74099227752125,-0.0443471335232299,0.139961627746171,0.144057137317042,-0.0162049802999252,0.0510956132063557,0.0539088791234214,0.497979849142686,-0.386045749535654,0.56688365112113,0.530686042029428
0.14180591152205,-0.481809261973989,-0.813101530578944,-0.0429516260176644,0.135018961648712,0.136301384214629,-0.0166414740976296,0.0524705161533301,0.0553106717310798,0.498915805898522,-0.38724604468576,0.570180672149026,0.525373696151176
0.154542400662431,-0.456375940905434,-0.879194586140065,-0.0414633826071883,0.130328269437617,0.127854619569123,-0.0170635491407539,0.0537972523087617,0.0566314517499986,0.499891933204386,-0.388455500198739,0.573506418681807,0.519904575103257
0.173045258609601,-0.432856435546907,-0.940688066831255,-0.0398189424612745,0.125882341358658,0.118769922242355,-0.0174699607660962,0.0550783053627431,0.0578645744590559,0.500876347486707,-0.389702024796714,0.57682645384602,0.514321357267168
0.19398283690281,-0.413736536161881,-0.999914930488931,-0.0379773001341587,0.121649610303416,0.109081623193842,-0.0178589419790734,0.0563159651210535,0.0590038321862369,0.501840824709263,-0.391007166982663,0.580109265431067,0.508667300093437
0.214024491449429,-0.399941063941574,-1.05938247757945,-0.0359307616428439,0.117581456106201,0.0987998520915888,-0.0182284822879584,0.0575121204531016,0.0600432395626641,0.502764282679492,-0.392381595667137,0.583328989719629,0.502983150012168
0.231902057595131,-0.390024198957095,-1.12099174180166,-0.0336946270480674,0.11363186359501,0.0879126969327718,-0.0185766092314129,0.0586681870516076,0.0609768023077859,0.503634102171173,-0.393823469975716,0.586467031593733,0.497304923040339
0.248524120635595,-0.381171653885464,-1.18556074074363,-0.0312859943073601,0.1097761181341,0.0763946504581338,-0.0189015123381901,0.0597852269602532,0.0617983390447404,0.504444172489803,-0.395320911916941,0.589512680576924,0.49166274302742
0.26465578820921,-0.371081448260553,-1.25269894600649,-0.0287135929135824,0.106015086426672,0.0642180679624717,-0.0192015102742948,0.060864182983057,0.0625014026368435,0.505190840086731,-0.396857311186088,0.592463376674604,0.486079866842824
0.278067751656434,-0.359020670029483,-1.32113407758955,-0.0259934733647005,0.102364809638524,0.0513636187825801,-0.0194750456056862,0.061906082463383,0.0630793110705687,0.505869401426168,-0.398416570043066,0.595324803147528,0.480571289376723
0.282896632096193,-0.344986524979384,-1.38911826635265,-0.0231821495963837,0.0988450074667821,0.0378270730009576,-0.0197209237204916,0.0629121315489096,0.0635252645294864,0.506473109421088,-0.399985995424818,0.59811030572204,0.475142352444444
0.271595326918532,-0.327791999596046,-1.45426935350676,-0.0204031879517564,0.0954813486472072,0.0236248508397491,-0.0199388504082323,0.0638837633294795,0.0638325241486899,0.50699397080836,-0.401557634784019,0.600838806147841,0.469788578551537
0.237257558353692,-0.304402980893055,-1.51294242012319,-0.0178524216758416,0.092320607548064,0.00880350790968789,-0.0201301284563703,0.0648227731104559,0.0639946659424371,0.507422792492919,-0.403131102401089,0.603530572785453,0.464497870445963
0.174479565647132,-0.271376657816715,-1.55960081541388,-0.0157872342062838,0.0894419431578175,-0.00654449232990892,-0.020298326735781,0.0657315858639853,0.064005961020336,0.507747479294172,-0.404718996060823,0.606201234643096,0.459254934230564
0.0789364516100128,-0.226881914782946,-1.58644771998573,-0.0145136522704444,0.0869508840981214,-0.0222600190688185,-0.0204498311681646,0.066613550000265,0.0638619384633424,0.507951295070566,-0.406352262911553,0.608855515368052,0.454046563326604
-0.0530853296342568,-0.171891357345998,-1.58384611342924,-0.014377894811012,0.084957251540779,-0.0380967722978048,-0.0205942889035719,0.0674730906784595,0.0635601545065093,0.5080132482081,-0.40808188543481,0.611482199174525,0.448866611052452
-0.224114620270665,-0.11057120314185,-1.5422956251933,-0.0157573927109829,0.0835451725416421,-0.0537127650528289,-0.0207449653411818,0.0683156027988716,0.0631011068197561,0.50791142829834,-0.409974874775633,0.614051257003972,0.443720223596452
-0.433494195693317,-0.0505016456158381,-1.45634522933689,-0.0190389349412492,0.0827400421011559,-0.0686912533873913,-0.020918946979443,0.0691470288720856,0.062489086727555,0.507629103744494,-0.41210405875009,0.616514097732258,0.438626612383066
-0.674587729981518,-0.0028680957552909,-1.3295032817091,-0.0245728427200697,0.0824734271976026,-0.0826057800045327,-0.0211370058677496,0.0699730962185793,0.0617326015605954,0.507162747745642,-0.414532215512332,0.618808483510993,0.433618553957685
-0.932707055614575,0.0181463456009778,-1.17734935005545,-0.0326028147984965,0.0825500522501333,-0.0951253272252669,-0.0214228841553424,0.070798213615818,0.0608439460244464,0.506530255600783,-0.417292771767516,0.620869305210096,0.428736689168915
-1.18538320466233,-0.00220074169461371,-1.02624587989199,-0.0431867642503273,0.0826300140729674,-0.106128587436916,-0.0218018320505865,0.0716241139474335,0.0598376764511355,0.505776973891088,-0.420371256159113,0.622644338450273,0.424018498974521
-1.40535933431168,-0.0749019258440204,-0.907181171336509,-0.0561339750956436,0.0822447345385765,-0.11578100675497,-0.0222984357473164,0.0724484876904913,0.058728128480176,0.504977256241248,-0.423692812530956,0.624111183000168,0.419484925286715
-1.56501198992018,-0.202533312377787,-0.846329339159397,-0.0709793298672493,0.0808577921507698,-0.124533843369361,-0.0229340022721309,0.073264000323938,0.0575265542295544,0.504229719795308,-0.427120831420449,0.625289764380005,0.415129974349537
-1.64128462169955,-0.376234011882251,-0.856140258039784,-0.0870043110757942,0.0779641893327719,-0.133031475417268,-0.0237239204768461,0.0740581102313557,0.0562387276356213,0.503645464793172,-0.430469646898595,0.626245747011046,0.410917745105813
-1.62133694620393,-0.575630383900784,-0.931286278383197,-0.103310917065758,0.073205101157159,-0.141953892161294,-0.0246754966175538,0.0748139566838053,0.0548638007977285,0.503330568301841,-0.43353023932419,0.627083270747144,0.406787957237577
-1.50771701303356,-0.772306004670824,-1.05096122382615,-0.118949685012392,0.0664656530176033,-0.151850413734253,-0.0257867996279446,0.0755123104546792,0.0533947792682507,0.503366346097306,-0.436103822320189,0.627928272480614,0.40266842736162
-1.31988097752192,-0.936310961514623,-1.18585353788146,-0.133081173115615,0.0579228019899783,-0.163019771604702,-0.0270469539185846,0.0761342527297171,0.0518204283415559,0.503792310973449,-0.438035912780119,0.628905826848677,0.398491289082586
-1.09008141460439,-1.0434078498305,-1.30648320512638,-0.145124483226693,0.048024441736555,-0.175466739381653,-0.0284379822002962,0.0766639889483497,0.0501279957866242,0.504596524978983,-0.439243481927226,0.630116767033587,0.394208536775552
-0.855084530238648,-1.08022164061267,-1.3896049262715,-0.154843811101355,0.0374065280876414,-0.188932464100554,-0.0299378236719364,0.0770911437974707,0.0483059997692131,0.505715811462017,-0.439729766785179,0.631619221333517,0.389803039344753
-0.647031400053532,-1.04587643633408,-1.42118934457018,-0.162347888903262,0.0267762715062099,-0.202971719516673,-0.0315237821719595,0.07741205779544,0.046346478851127,0.50704532907262,-0.439584538105525,0.633418836544043,0.385293453922309
-0.486072010590926,-0.950404597146116,-1.39653981993792,-0.168006904106931,0.0167951001421112,-0.217045649401125,-0.0331755561370105,0.0776299146536816,0.044246392006538,0.508454635482404,-0.438970950484348,0.635468565759569,0.380733621077518
-0.376311143070214,-0.811519908045968,-1.31915285365211,-0.172312318025683,0.0079857114194531,-0.230609396830987,-0.0348771522476735,0.0777538187114894,0.0420081167753774,0.509806237372641,-0.438102214234509,0.637676929155839,0.376207634480149
-0.306088724648057,-0.652036905360897,-1.19945957908326,-0.17571781551472,0.000668161155721061,-0.243187743056575,-0.0366173029153755,0.0777970880743653,0.0396391310759396,0.510972735442371,-0.437212230902251,0.639923034895591,0.371820976000594
-0.252982795488875,-0.498833852019843,-1.05343838805157,-0.178506671265851,-0.00508595882788034,-0.254437516954161,-0.0383884253492784,0.0777749990860045,0.037151004775886,0.511849993657356,-0.436524546901247,0.642076340377161,0.367687200040331
-0.192379420729115,-0.381257134050164,-0.90098426083174,-0.180726980497388,-0.00948617995492808,-0.264194914260489,-0.0401845936080946,0.0777021383920904,0.0345578426198127,0.512366352307232,-0.436222896453827,0.644018607695385,0.363909794557544
-0.106480670689537,-0.326004784989731,-0.76362770448592,-0.182214779104927,-0.0130222557468253,-0.272503258148989,-0.0419993024061062,0.0775895962135816,0.0318743517577653,0.512489391234196,-0.436425775895937,0.645664593150138,0.36056122802972
0.0100058513291188,-0.348708182705098,-0.660693220574947,-0.182690651352176,-0.0163955867819971,-0.279610146836205,-0.0438238295583917,0.0774425070009375,0.0291137847328394,0.512230012598003,-0.437169275743975,0.646976757906659,0.35766536492639
0.149778384039649,-0.446624432322197,-0.604664572866459,-0.181885228325778,-0.0203720160538313,-0.285922219865323,-0.0456467089567814,0.0772586689867584,0.0262861228993317,0.511641267356683,-0.43840413348061,0.647969307361091,0.355191224557633
0.297912538024329,-0.597800362781511,-0.59833053810432,-0.179640271865905,-0.0255939062260475,-0.291922479482088,-0.0474543364577399,0.077028839375359,0.0233968994025947,0.510809605970762,-0.440010494257083,0.648699786657232,0.353062173253513
0.438727758696095,-0.768525038958255,-0.635334020484293,-0.175950568532749,-0.0324252994314441,-0.298076086336943,-0.0492322906597331,0.0767387433470716,0.0204469065734995,0.509838974948874,-0.441827533999317,0.649251232972934,0.35117728614802
0.560774727786014,-0.925634157328444,-0.703832070942935,-0.170946554250785,-0.0408958616095753,-0.304757200855991,-0.0509667762736508,0.0763721375418665,0.0174327401375348,0.508831633133225,-0.44368891498505,0.649711525422192,0.349435901956185
0.658148410084918,-1.04749160120293,-0.791378214138263,-0.164845436711876,-0.0507612565989298,-0.312218536343308,-0.0526457362284641,0.0759138519508239,0.0143478614515383,0.507871815816139,-0.445452797513336,0.650156937566377,0.347755633198761
0.729204540003856,-1.12863690350815,-0.888172235678165,-0.157902170111879,-0.0616416653191829,-0.320601572654302,-0.0542594742625829,0.0753518373412334,0.0111837609065503,0.507017682087727,-0.447018041671392,0.650644084739792,0.346078337177843
0.774991365019223,-1.17667345310428,-0.987330601791851,-0.15037468873721,-0.0731679832989428,-0.329964370903563,-0.0558008585568283,0.0746777890981427,0.00793093118876097,0.506302766137259,-0.448325038421815,0.651210226561927,0.344365227261701
0.798597671726056,-1.20415743229491,-1.08338753729989,-0.14250024170393,-0.0850719039226364,-0.340303245660933,-0.057265233209034,0.0738865896620348,0.00457959310593848,0.50574322452965,-0.449346318168964,0.651878605795678,0.342587157517954
0.805014161410495,-1.22072070855232,-1.17072447090631,-0.134475680688693,-0.0971960608235703,-0.351559089763876,-0.0586501128209971,0.0729752498383038,0.00112028142881444,0.50534544578701,-0.450074608570691,0.652664518851245,0.340716675516391
0.80097064222688,-1.22950783954042,-1.24315456263642,-0.126439254820953,-0.109446969760732,-0.363613768993501,-0.0599546874985454,0.0719420346853823,-0.00245558286497245,0.505110340827427,-0.450514246362957,0.653578804672332,0.338725853008452
0.794753581812572,-1.22833653903848,-1.29534914128407,-0.118454131851202,-0.121735957850324,-0.376291571575015,-0.0611791544319061,0.070786120047327,-0.00615510956781503,0.505033385784533,-0.450678304619619,0.654627779604718,0.33658998077482
0.795515502121902,-1.21314634059194,-1.32502499705249,-0.110496284581976,-0.133943138445174,-0.389378726328609,-0.062323906514072,0.0695077245658495,-0.00998346105733315,0.505101304351943,-0.450590819537841,0.65581105331455,0.334293954537983
0.811133117590192,-1.18114581059171,-1.33374377192393,-0.102456539633861,-0.14591436539779,-0.402657854235403,-0.0633886706351512,0.0681084370466347,-0.0139436439601532,0.505287301097644,-0.450291685965551,0.657119343032625,0.3318377764995
0.845072002895984,-1.13248437320791,-1.32570453624797,-0.0941690121818769,-0.157482282513485,-0.415940379838174,-0.0643717983942299,0.0665914538070783,-0.0180366351305211,0.505547588382411,-0.449840702838572,0.658533496354028,0.329239444979133
0.89436842501243,-1.07060312433719,-1.30577275980632,-0.0854653081927812,-0.168497486197909,-0.429083050380357,-0.0652699699961032,0.0649615549635214,-0.0222617522816137,0.505821697854261,-0.449317655079352,0.660024943629272,0.326535034262791
0.950237353303119,-1.0020661369217,-1.27806618635093,-0.0762357774516498,-0.178860598700901,-0.441987529173055,-0.0660784754243253,0.0632247645390273,-0.0266171051793808,0.506037515830664,-0.448817263090589,0.661557410152113,0.323775987368787
1.00102820712185,-0.936300435339768,-1.2456846951625,-0.0664729477999712,-0.188552197758906,-0.454591567642533,-0.0667920190505834,0.0613877005567283,-0.0311000006634587,0.506120500667354,-0.448439447743536,0.663089843743973,0.321023300766925
1.03605072973486,-0.884649122922983,-1.21125266147051,-0.056281051266134,-0.197656711746917,-0.46686153848761,-0.067405789045914,0.0594566560091992,-0.0357072661941094,0.506005495940693,-0.448276206012307,0.664580810271012,0.318338228650834
1.04820599753737,-0.857943666918283,-1.17687370242302,-0.0458532657802192,-0.206369441892821,-0.478787454368989,-0.0679164606311457,0.0574365252410005,-0.0404355111583924,0.50564837802511,-0.448397617808653,0.665994396046565,0.315770103997628
1.03400559550749,-0.863092824594125,-1.14301444641456,-0.0354357059654413,-0.214974390547081,-0.490372179175088,-0.068322905489874,0.055329806078801,-0.0452813093261128,0.505034425883854,-0.448840382566812,0.667306698452374,0.313343756679523
0.991583649993031,-0.900482328225232,-1.10787461435238,-0.025301257888385,-0.223792032507875,-0.501611908540834,-0.0686265903091432,0.0531359739635262,-0.0502412297646924,0.504181803908278,-0.449601241870146,0.668511223387213,0.311050118344214
0.919019871973463,-0.963458070640273,-1.06825326023498,-0.0157417384289988,-0.233111500698901,-0.512477831975683,-0.0688318052907301,0.0508514562974923,-0.055311678467275,0.503140533178924,-0.450635823865534,0.669621571041402,0.308842856024718
0.81494183641964,-1.03961470886711,-1.02104728421396,-0.00706542803747966,-0.243126630793135,-0.522909618759839,-0.0689458411230625,0.0484702656400321,-0.0604886157209526,0.501987943375632,-0.451862881653841,0.670670269759542,0.306642185861067
0.681033427599098,-1.11322515503669,-0.963995945077306,0.000420950132167697,-0.253890596309352,-0.532820118968206,-0.068979063512589,0.0459851795045197,-0.0657672644095929,0.500820730161465,-0.453174120534596,0.671703491364543,0.304345580560842
0.524123885882437,-1.16873707688316,-0.895090641394355,0.00645323854912904,-0.265300173665649,-0.542100835962476,-0.0689446925691826,0.0433892256546447,-0.0711418691842463,0.499743252044315,-0.454448993170073,0.672772671518511,0.301843878686856
0.355909339799044,-1.19504374117178,-0.811753345632722,0.0108599065270901,-0.277118843952621,-0.550620339959523,-0.0688581268438015,0.0406771305665533,-0.0766054750638563,0.498853555298212,-0.455571626297749,0.673925043853298,0.299039560837843
0.19045858183583,-1.18896015634154,-0.711547202950011,0.0135982479848182,-0.289038629636886,-0.558222126764348,-0.0687358360712419,0.0378463431986058,-0.0821496873974756,0.498231339153842,-0.456445180699439,0.675195455390818,0.295862175211383
0.0413001012992545,-1.15566276199977,-0.594477625707012,0.0147635432500472,-0.30076151042529,-0.564737534969545,-0.0685940271150676,0.0348973424982949,-0.0877644857061451,0.497931987960388,-0.456999593900668,0.67660158026765,0.292276253089025
-0.0804757644072457,-1.10525575865037,-0.464969621930201,0.014574166784061,-0.312065869225238,-0.570020055269642,-0.0684473385648971,0.0318332056000423,-0.093438273657341,0.497987140346131,-0.457192140779657,0.67814344413766,0.288280460025145
-0.167323325101536,-1.04728608248013,-0.331575916897151,0.0133416731860707,-0.322828344627589,-0.573988067025691,-0.0683077593650464,0.0286587345307782,-0.0991583142688177,0.498408339640521,-0.457003965782584,0.679806482961144,0.283900771326477
-0.216550662250299,-0.986492966065954,-0.204405011339392,0.0114288050988652,-0.332997006067017,-0.576653255728785,-0.0681839069736217,0.0253796077773051,-0.10491152088259,0.499189869073932,-0.456436270868154,0.681566479727924,0.279181910161115
-0.2316465336072,-0.921872599644307,-0.0924302435143729,0.00919432096913139,-0.342538600092266,-0.578122716064965,-0.0680807913432817,0.0220019297465087,-0.110685400741559,0.50030975373128,-0.455507423194016,0.683394899259538,0.27417977569934
-0.222178643221941,-0.848385455372686,-0.00240968396585384,0.00693169693453936,-0.351389656564048,-0.578582199764278,-0.0680001612537634,0.0185322884632272,-0.116468925320705,0.501730292471135,-0.454250412818722,0.685263643598505,0.268955414210147
-0.201733355684003,-0.759071906031783,0.0612608039252485,0.00481863878956331,-0.359426709567768,-0.578273228226392,-0.0679414095751429,0.0149782066325681,-0.122253202460658,0.503399280679209,-0.452710347774168,0.687148582147445,0.263570353573012
-0.184938940491412,-0.646322506437892,0.0970722836470532,0.0028917791582399,-0.366453447826814,-0.577466846850442,-0.0679028574854039,0.0113488058455952,-0.128031902836043,0.505252052567606,-0.450942485663247,0.68903105894109,0.258084168082033
-0.184154271507856,-0.50325211056503,0.107734709739373,0.00105281494779723,-0.372201087108527,-0.576428095945422,-0.0678831345148737,0.00765553317091845,-0.133801377550022,0.507214146851685,-0.44901159548635,0.690896265900924,0.252556421649657
-0.205664239769876,-0.326980237547613,0.101439092011155,-0.000889775759037758,-0.376352015045788,-0.57536751099858,-0.0678823193189299,0.00391276766014687,-0.139560355584742,0.509204261850018,-0.44699289732755,0.692728495967787,0.247053840947086
-0.24686397296144,-0.123490329889323,0.0907894919246401,-0.00314591497314067,-0.37860413407967,-0.574391652140813,-0.0679024977725908,0.000137986914519584,-0.145309151400439,0.511137406308133,-0.444972864869928,0.694506117145949,0.241658756615398
-0.29724027916421,0.0893827536582834,0.0889284156664476,-0.00585993438421525,-0.378774438157523,-0.573478346664769,-0.0679475270193775,-0.00364890594666638,-0.151048501394467,0.512929314115824,-0.443046176566798,0.696200447189263,0.236471016159873
-0.343698470054738,0.284239279756509,0.105537887183984,-0.00905812628075632,-0.376906094187147,-0.572491299212428,-0.0680221173227024,-0.00742730860838973,-0.156778349623853,0.51450382290516,-0.441305859050035,0.69778018473149,0.231598291833455
-0.377086116701208,0.431643737068958,0.144920510110299,-0.0126555473649824,-0.373326445299717,-0.571224291287868,-0.0681306856909311,-0.011178471305824,-0.162496927576354,0.515803567179116,-0.439827342029243,0.699219087350537,0.22713708894294
-0.395676542983382,0.509967623156215,0.20616151629088,-0.0165128588138517,-0.368618154695289,-0.569454165217774,-0.0682765277218253,-0.0148881943057991,-0.168200319858882,0.516801736460795,-0.438651103531626,0.700502988748635,0.223151825705783
-0.404007601373253,0.514056763473733,0.284616642890718,-0.0205047776860812,-0.363497798958837,-0.566985558483777,-0.0684616159043249,-0.0185487740740697,-0.17388251847739,0.517510499417281,-0.437770460269982,0.701633476806882,0.219659671609905
-0.409142622563188,0.459339360244438,0.374214148841653,-0.0245640269562097,-0.358630584536944,-0.563676688587027,-0.0686869599275364,-0.0221594159915486,-0.179535829712744,0.517981380926934,-0.437130334175395,0.702627319221959,0.216626891774078
-0.417593216916651,0.378535149572573,0.470014289639791,-0.0286912043040552,-0.354440978184556,-0.559440830456531,-0.0689532360838377,-0.0257247738051561,-0.185151417307962,0.518295154643411,-0.436639578778025,0.703511813085762,0.213979297518466
-0.434473135307723,0.311163382769153,0.569644561676925,-0.0329450342156234,-0.350992251719546,-0.554227820261859,-0.0692614172764361,-0.0292519399546766,-0.190719760561554,0.518543259737459,-0.436193859839926,0.704317344166692,0.211624391611115
-0.464183194121261,0.29042532634089,0.672355480772601,-0.0374318140132147,-0.347984074370693,-0.548003104111523,-0.0696133015175803,-0.0327468215851278,-0.196230915183421,0.518807076836502,-0.435700911225929,0.705069507018802,0.209477739279196
-0.510854362429915,0.333541310731791,0.776539653280067,-0.0423004999464169,-0.344864007382027,-0.540743912503171,-0.0700119630873784,-0.0362110619938914,-0.201674650266494,0.519142380258179,-0.435099314438483,0.705783120296145,0.207484849326574
-0.577419631737626,0.439008138124949,0.878171689659822,-0.0477353680677009,-0.341001026334441,-0.532455639850383,-0.070462142427449,-0.0396403871624738,-0.207040648028262,0.519572943240463,-0.43436617695683,0.706459405542603,0.205633385637504
-0.663722401797765,0.589998048310445,0.97142343378685,-0.0539345763858242,-0.335855761598962,-0.523192948295061,-0.0709704921497167,-0.0430246711021408,-0.212318890968989,0.520092603924949,-0.433514463918349,0.707086384661912,0.203955234161568
-0.764899664676522,0.7607306568855,1.05034646745373,-0.061071184868642,-0.32910188426968,-0.51306938285077,-0.071545520955989,-0.046349459331484,-0.217500202624718,0.520672818812616,-0.432583492879386,0.707641766833342,0.202520288541618
-0.871150126353108,0.923325944475567,1.11010921055225,-0.0692449319742365,-0.320681367459572,-0.502252388522652,-0.0721971015402034,-0.0495983755901303,-0.222576811481586,0.521272791659416,-0.431626079903458,0.708097403853602,0.201424106001644
-0.969570230162366,1.05388908377,1.14734337561266,-0.0784420319072602,-0.310795058515042,-0.490950409653738,-0.0729355363596109,-0.0527557577200033,-0.227542825472468,0.521849547427264,-0.430695294300823,0.708424549832463,0.200771687525307
-1.04773205764117,1.13681434083874,1.16003661607119,-0.0885220414967241,-0.299841307588696,-0.479398793757231,-0.0737703567266308,-0.055808939550522,-0.232394571489522,0.522365835587629,-0.429833276568655,0.708599171446249,0.200660166427673
-1.09722772051281,1.16676747294218,1.14800100430612,-0.0992403385379404,-0.28832316471649,-0.467843889717256,-0.0747091686268041,-0.0587497619120479,-0.237130784906895,0.522795155338441,-0.429063535244374,0.708606275012347,0.201163752429161
-1.11495998950175,1.148553448733,1.11414452267283,-0.110294775238459,-0.276746326304811,-0.456518446144272,-0.0757568441956861,-0.0615751093671544,-0.241752596586202,0.523124316137253,-0.428387259533843,0.708442150860989,0.202324058427243
-1.10145769467407,1.0950297306356,1.06488440317093,-0.121370361809785,-0.265528176604666,-0.445608585576965,-0.0769151698809273,-0.0642864818817018,-0.246263231744809,0.523353751632843,-0.427783917665757,0.708114092214176,0.204147502669169
-1.0578048635535,1.02327927410453,1.00852942426245,-0.132160172751369,-0.254936397777663,-0.43522680050171,-0.0781828225537331,-0.0668888047536135,-0.250667408675202,0.523495237588444,-0.427216125192267,0.70763805702411,0.206609532328655
-0.983754803516017,0.950107125299011,0.952946838985647,-0.142361469237163,-0.245069231977343,-0.425404703247381,-0.0795554307636758,-0.0693888329023885,-0.254970566193947,0.523566904392688,-0.426638080728699,0.707035158555503,0.209663848250442
-0.878527336939966,0.888137215673541,0.904131324885375,-0.151666378089889,-0.235877776469178,-0.416104596489937,-0.081025570000311,-0.0717935679446211,-0.259178112692634,0.523586421399601,-0.426005852957215,0.706327898983936,0.213253772977395
-0.743654489722157,0.843310298258419,0.865889279435299,-0.159770785373646,-0.227220305096216,-0.407239777530245,-0.0825827558176287,-0.0741090583524481,-0.263294834562735,0.523564500000521,-0.425286716242478,0.705536928105945,0.217322494016889
-0.585498367847065,0.81443739053411,0.840290355162419,-0.166410047811939,-0.218931332848951,-0.398694163419168,-0.0842136599835566,-0.0763398165421739,-0.267324504267482,0.523501463233399,-0.424464631772261,0.704678658340097,0.221819707976838
-0.415065636797589,0.795048842322797,0.828282516846206,-0.171406365985608,-0.210883667881364,-0.390336583121036,-0.0859027420525443,-0.0784888915458255,-0.271269658000183,0.523388398612903,-0.423540540030435,0.703763699386896,0.226703883013546
-0.24506227962233,0.776862721503859,0.829886825061075,-0.174700503718154,-0.203023876258929,-0.382031020473411,-0.0876332764010632,-0.080558429266527,-0.275131496018155,0.523212104961943,-0.422528040460544,0.702796359388223,0.231940564534379
-0.0866694202537024,0.753518611182838,0.844129565016758,-0.176352660367981,-0.195371735792193,-0.373646222584934,-0.0893885422214939,-0.0825504073267826,-0.278909882233447,0.522961558102985,-0.421446156695571,0.701775713339486,0.237497776663039
0.0518811233955032,0.723175877222676,0.869026041068928,-0.176520100002718,-0.187988029546863,-0.365065728616417,-0.0911529060233473,-0.0844672061534778,-0.282603441989454,0.52263358377131,-0.420311407643776,0.700698146422579,0.24334043091691
0.16544207364629,0.689290856548091,0.901418283012096,-0.175426982167955,-0.180925462074707,-0.356198791057923,-0.0929126414342007,-0.0863117736115857,-0.286209764587825,0.522236226117189,-0.419131469904411,0.699560329649133,0.249426302237436
0.252448220468813,0.65970947306165,0.936822501447804,-0.173331028847826,-0.174180226623356,-0.346992871197535,-0.0946564314892796,-0.088087302055076,-0.289725722899103,0.52178887920238,-0.417902608927041,0.698361090647367,0.255706007091185
0.315965493242921,0.644103104554397,0.969944860005841,-0.170482458429714,-0.167660929931973,-0.337444318452178,-0.0963754989256673,-0.0897965078378527,-0.293147908847351,0.521318425622653,-0.416612512320505,0.697101044472087,0.262128303470344
0.363601700443963,0.64973705106493,0.995856819579757,-0.167078120611726,-0.161191495350574,-0.327600594116162,-0.0980633018208745,-0.0914407699642654,-0.296473133410193,0.520851752179986,-0.415247993964344,0.695780255502915,0.268649198420401
0.404971820552715,0.677155857751707,1.01127773811109,-0.163228751157189,-0.154556797003189,-0.317550205389619,-0.0997148361797191,-0.0930195114260342,-0.299698887407722,0.520407509925374,-0.413803723381946,0.694395671280777,0.275240174820154
0.447859717007286,0.718716490573766,1.01546436953321,-0.158958091619835,-0.147577201458259,-0.307401778913309,-0.101325770393604,-0.0945301814183414,-0.302823647329237,0.519991420245731,-0.412286857430623,0.692940096377532,0.281890923750846
0.495660816316759,0.761406791584842,1.01016769306445,-0.154233987103661,-0.140176351244164,-0.297258902662232,-0.102891730787222,-0.0959689491818536,-0.305846950737114,0.51959749181414,-0.410715171997318,0.6914031772425,0.288605510152948
0.547542392126152,0.792237484286814,0.998818611411004,-0.149011469211893,-0.132407896061503,-0.287199255201766,-0.104407958068799,-0.0973318704183819,-0.308769241526434,0.519213791145943,-0.409110494698141,0.689773742292261,0.29539435786052
0.600524687490383,0.802870028217684,0.985868508337081,-0.143264631964257,-0.124432124695679,-0.277261103664937,-0.10586933857468,-0.0986160705221678,-0.311591543320768,0.518829472120252,-0.40749116978947,0.688042434830976,0.302265666715381
0.651701704700808,0.791354231968926,0.976396775080749,-0.136996998153747,-0.116460769591443,-0.26743506130976,-0.10727064672527,-0.0998205349936034,-0.314315024145641,0.518440456015985,-0.405866452726021,0.686203648037466,0.309219128673513
0.699534438827254,0.761028851604762,0.97511405182675,-0.130234315586553,-0.108698620370273,-0.257662791237134,-0.108606803293972,-0.100946331943412,-0.316940513408376,0.518052467259953,-0.404234195829225,0.684256298940113,0.316243060712726
0.744029009896243,0.71784534128881,0.984663510213967,-0.123009996493382,-0.101304015602502,-0.247849187488842,-0.109873024854371,-0.101996345123276,-0.319468073302006,0.517681148446809,-0.402581862881425,0.68220371411814,0.323314343426224
0.786032338798276,0.667953596611347,1.00456158995654,-0.115353187900355,-0.0943747871096993,-0.2378883460499,-0.11106484077634,-0.102974739136837,-0.321896760969699,0.517350155335265,-0.400889467308692,0.680053312666587,0.330399672679517
0.826348601363504,0.617103374633334,1.0319919785378,-0.107284781349993,-0.0879492684501736,-0.22769086226934,-0.112178030622592,-0.103886359414636,-0.324224657011295,0.517088604600821,-0.399132436234152,0.677816586595311,0.337457179911832
0.865519997865177,0.571618471418474,1.06403226872499,-0.0988189365042958,-0.0820054254166122,-0.217196025094938,-0.113208549211863,-0.10473613288397,-0.326449091448117,0.516928337578625,-0.397283635760369,0.675509225904665,0.344438807748054
0.90429343408255,0.539235970873646,1.09980229557757,-0.0899633674950035,-0.0764509194018494,-0.206362136335336,-0.11415246073186,-0.105528414608062,-0.328566882255268,0.516900542217373,-0.395315457271913,0.67315067226528,0.351294308416868
0.943898676241586,0.528480274324123,1.14142412695443,-0.0807159050938292,-0.0711121043725582,-0.195141288284588,-0.115005857094804,-0.106266229726934,-0.330574399378368,0.5170314419876,-0.39320313908094,0.670762410675132,0.357977049317975
0.985582138700819,0.546416846107851,1.19347980193063,-0.0710619991695635,-0.0657373849670961,-0.183452052702074,-0.115764746616121,-0.106950477173633,-0.332467366083301,0.517337698112235,-0.39092941273237,0.668364806441451,0.364450800360131
1.0297845978906,0.595730882246704,1.26133533698061,-0.0609786636370527,-0.060026412522021,-0.171163261069429,-0.116424949930154,-0.107579296161078,-0.334240442652159,0.517822964545949,-0.3884891479873,0.665973151112688,0.370695726009868
1.07534004554529,0.672629747234361,1.3493864078438,-0.0504465385703196,-0.0536843755713134,-0.158094936407219,-0.116982075941191,-0.108147850101545,-0.335886733639542,0.518476983387738,-0.385891922092797,0.66359444135425,0.376711374349672
1.11872109261398,0.766573704005694,1.45989296354713,-0.0394697310299696,-0.0464881245118108,-0.144033823612176,-0.117431657289192,-0.108648712601961,-0.337397377439639,0.519278101813015,-0.383160684553503,0.661226332714844,0.38251520193901
1.15407526106745,0.862078108403682,1.5921050597663,-0.0280992474120088,-0.0383446316464617,-0.12875911755752,-0.117769502181402,-0.109072876382752,-0.338761342145487,0.520199535685055,-0.380325430502482,0.658858800020155,0.388136691929733
1.17490506882507,0.942355798552,1.74160497278357,-0.0164478439129925,-0.029322228308381,-0.112075851456682,-0.117992237638027,-0.109411210682526,-0.339965516990558,0.521218563759067,-0.3774122300849,0.656478224593521,0.393608381528921
1.17661997154136,0.993991798403541,1.9002348377642,-0.00468371686160671,-0.019640256520301,-0.0938519364658547,-0.1180978954419,-0.10965602310667,-0.340995155930171,0.522326061479547,-0.374430483735867,0.654073000108283,0.398955898412268
1.15828912388294,1.01126311907974,2.05670422854547,0.00699733046506845,-0.0096137481295823,-0.0740525251962178,-0.118086327373883,-0.109802293129919,-0.341834678238482,0.523532694961241,-0.371363236278537,0.651639123088811,0.404189704603418
1.1228038011618,0.998427510813101,2.19786381990132,0.0184092969398458,0.000434938823184177,-0.0527649690158954,-0.117959294236858,-0.109848187176451,-0.342468765709542,0.524868951028325,-0.368164819641256,0.649183803527028,0.409301403690641
1.07584155166263,0.968835825647437,2.31037064667742,0.0294090255535217,0.0102714893087892,-0.0302090807449132,-0.117720202624391,-0.109794655035791,-0.342883635958346,0.526378533956576,-0.36476738122693,0.646725422884185,0.414266368388558
1.02455960432774,0.941293718881736,2.38233783996823,0.0399175331830272,0.0198223708347373,-0.00673082237359637,-0.117373569830709,-0.109644185735074,-0.343068335473939,0.528106894826574,-0.361094715992541,0.644289615903657,0.419052030847743
0.976451315808718,0.935139760494218,2.40521684429489,0.0499290896332632,0.0292047720349194,0.0172216669858078,-0.116924336716627,-0.109399050020725,-0.343015881250878,0.530087813508419,-0.357079669883832,0.641903007546589,0.423629021938017
0.937974322939579,0.965317036513542,2.37599244717752,0.0595077196765583,0.0387072898232605,0.0411424293812583,-0.116377152670078,-0.109059489711434,-0.342724060769042,0.532331472763551,-0.352680546791469,0.639586832778384,0.427981679931251
0.912894543229455,1.0386023004344,2.29871190892596,0.0687685658569571,0.0487271203113025,0.0645306670998643,-0.115735771242411,-0.108622317660762,-0.342195695286637,0.534817442974899,-0.347892289267528,0.6373521840718,0.432115090244366
0.901232351689563,1.15199303918613,2.18438363010995,0.0778457021811059,0.0596803308127074,0.0869608607331323,-0.11500269990222,-0.108080280405141,-0.341438237647472,0.537494587167399,-0.342749867596255,0.63519771801594,0.436057285291553
0.899491510357449,1.29345738613226,2.04919150893231,0.0868558233408946,0.0719078167426017,0.108143452366432,-0.11417919227461,-0.107422339667365,-0.340462716081974,0.540287545686759,-0.337323678530593,0.633109946200429,0.439856681091077
0.901853692700502,1.44450543359141,1.91142778327052,0.0958690512057381,0.0855978646445224,0.127961264765535,-0.113265567901877,-0.106634811260429,-0.339282192496314,0.543107729261271,-0.331708617186949,0.631065853537076,0.443575558614437
0.90172967333064,1.58373533890012,1.78778199823833,0.104893469885447,0.100739302310282,0.146472029611168,-0.112261755296421,-0.105703125425655,-0.33791002602443,0.545866314351622,-0.32600931231515,0.629037376622991,0.447280531603204
0.893322698574174,1.69073659276903,1.69008735862768,0.113875233594525,0.11711189577193,0.163876092333586,-0.111167911779021,-0.104613869435244,-0.336358285414707,0.548486901943187,-0.320324232190735,0.626997173505977,0.451031095473135
0.87287646482242,1.74994039076733,1.62368694483824,0.122712731261062,0.134315514492914,0.180459679789004,-0.109984971954743,-0.10335673238392,-0.334636606554094,0.550915458282779,-0.314731732557271,0.6249248120953,0.454868193627811
0.839150894522239,1.75368838699059,1.58794626654352,0.131279369907339,0.151833892185006,0.196532561784002,-0.108715011448901,-0.10192598535053,-0.332751645346229,0.553125540066089,-0.309281015619468,0.622812075722436,0.458805523766114
0.792837316417562,1.70377387708959,1.57839195011371,0.139445812811591,0.16912143730871,0.212378968805376,-0.107361385535307,-0.100321208703062,-0.330707087693282,0.555118276224052,-0.303989385124227,0.620666087845528,0.462825842550261
0.735464479679206,1.61104178845676,1.58912145315413,0.147093823641629,0.185695749439744,0.228231251759804,-0.105928687353041,-0.0985471227693196,-0.328504036590456,0.556918187342505,-0.298845273336448,0.618509125782725,0.466883386441508
0.669071876062127,1.49277672065391,1.6142412405142,0.154123007269889,0.201215075788599,0.244262781166234,-0.104422603198483,-0.0966125686431779,-0.326141566425826,0.558566611598269,-0.293815572609231,0.616374496812623,0.470912124901158
0.597073981362088,1.36843131658956,1.64790528765132,0.160460238406564,0.215521349778119,0.26058822974515,-0.102849686970101,-0.0945288865153443,-0.323617311371269,0.560114252334024,-0.288855308207565,0.614299552036379,0.474837546557256
0.525167416774409,1.25554717245587,1.68349427216097,0.1660779472468,0.228641476026648,0.2772599434823,-0.101216996041834,-0.0923080723863204,-0.320928070505132,0.561613664451073,-0.283917586885741,0.612318584248775,0.478588390104055
0.460892565236953,1.16741430427607,1.71341056261673,0.171014749006411,0.24075651721361,0.294259183594277,-0.0995315325605679,-0.0899610824201191,-0.318070474869749,0.563111768547201,-0.278962713331607,0.610458086209524,0.482105658207531
0.41131548303485,1.11237161164672,1.73062162997408,0.175382291097323,0.252155680596526,0.31149406049532,-0.0977995473600492,-0.0874965214310685,-0.315041708649301,0.564642368663121,-0.273966531405844,0.608735065847634,0.485348281945478
0.37936013197164,1.09392584739208,1.73113398220523,0.179342171021909,0.263187401695023,0.328817554494305,-0.0960259250494531,-0.0849198060196107,-0.311840150574353,0.566219681786569,-0.268927811252854,0.607157333894106,0.488296094793791
0.360742770261538,1.11113636204758,1.71558229258919,0.183049187382629,0.274212946545523,0.346065851806366,-0.0942139682574304,-0.082232804278408,-0.308465733542849,0.567834962184485,-0.263873210364338,0.605723912762666,0.490951042447664
0.344061926924387,1.15901258530946,1.68897414516227,0.186579712718112,0.285563925085611,0.363103349933211,-0.0923658237569266,-0.0794339199202523,-0.304919887534151,0.569457871290709,-0.258857874127902,0.60442431324706,0.49333719035043
0.314826784456598,1.22905170872714,1.65863228613525,0.189880658124571,0.297504480359096,0.379856098027787,-0.0904835219027132,-0.0765185778930288,-0.301205090294346,0.571042455053494,-0.253960988278154,0.603236863914215,0.49549936122482
0.261192766286616,1.31016942329788,1.63116398646634,0.192767257727841,0.310200819822524,0.396319795328884,-0.0885702823234512,-0.0734800513921207,-0.297324210827563,0.572535718209857,-0.249277548674314,0.602127670465337,0.49749957141774
0.177720048733903,1.38995708363761,1.60993133333191,0.194968323652497,0.323701686160503,0.412539987865964,-0.0866316044165495,-0.0703105388622056,-0.293279911911589,0.573886032174487,-0.244908629405647,0.601052244102506,0.499410437593182
0.0651375729387168,1.45625593650204,1.59427793251618,0.196189113610414,0.337932985064504,0.428575750133293,-0.0846758172302349,-0.0670023655060805,-0.289074333221592,0.575049394326926,-0.240951979553069,0.599960661044407,0.501305837620958
-0.0727198330035408,1.4990889004405,1.58059612995,0.196157704159643,0.352709943052519,0.444464836383712,-0.0827140831413846,-0.0635491508654954,-0.284709130289007,0.575993099012811,-0.237493768980282,0.598804871007624,0.503250818223578
-0.231872534237636,1.51229415147019,1.56414673856194,0.194641244172991,0.367767092115375,0.46020326666436,-0.0807600883997215,-0.059946765689656,-0.280185789773767,0.576697433049885,-0.234601827520046,0.597545308929862,0.505293634448174
-0.408706812471261,1.49398081201756,1.54055003184529,0.191444849289,0.382798700736115,0.475741466454485,-0.0788296579324115,-0.0561939367253985,-0.275506066108173,0.577156095482047,-0.232320810662349,0.596154390052667,0.507462142038241
-0.597849135841064,1.44578162237449,1.50657802357516,0.186418571396992,0.397497746711378,0.490991822669676,-0.0769403408289816,-0.052292454488161,-0.270672399662552,0.57737558974603,-0.230669812880479,0.59461618406077,0.509765102222697
-0.789382155386614,1.37141164565129,1.46016739592228,0.179488916790408,0.411583946854809,0.505840265705252,-0.0751108033880446,-0.0482470460203301,-0.265688239220677,0.577373410531991,-0.229642710175858,0.592923406981838,0.512197231471231
-0.967789031779302,1.27486945396285,1.39988850980006,0.170709562704132,0.424815586156182,0.520155261171952,-0.0733598109905719,-0.0440650483552752,-0.260558261586291,0.57717481040808,-0.229210938767368,0.59107391550761,0.514745772383108
-1.11366427441973,1.15870606517114,1.32452103041949,0.16030879802269,0.436983697555155,0.533792024811138,-0.0717047191869378,-0.0397560519367185,-0.255288525156376,0.57680839275955,-0.22932793351431,0.589068670065277,0.51739624940632
-1.20763725102963,1.0230763765895,1.23309081867446,0.148708792244997,0.44789284356726,0.546594799994696,-0.0701596312355993,-0.0353316692311064,-0.249886591032347,0.576301513930712,-0.229934094982853,0.586912215976533,0.520135489793863
-1.23525406060085,0.866220662303146,1.12529135833342,0.136500837536398,0.457339562565026,0.558401426817824,-0.0687335830866923,-0.030805507200445,-0.244361609898284,0.575676845185607,-0.230960904300807,0.58461584168354,0.522950808637243
-1.19148699764287,0.686441684121814,1.00216645138272,0.124373634094733,0.465103108100453,0.569053431804494,-0.0674292107285367,-0.0261932938471176,-0.238724335605173,0.574951100357129,-0.232333481488645,0.582202396558055,0.525825783905231
-1.08333098261084,0.484611211206051,0.86663922357267,0.113006046043019,0.470958606380394,0.578412176117359,-0.0662423123278479,-0.0215129852747133,-0.232987007565563,0.574136340999479,-0.233972219328082,0.579710425370469,0.528734607570956
-0.928988144045374,0.265795025589616,0.723402212019315,0.102950952259291,0.474710871367675,0.586377099233408,-0.0651625273363364,-0.016784637885973,-0.227163061188809,0.573243648055411,-0.235794594055954,0.577195090875507,0.531637523550894
-0.753325402385925,0.0394262935952372,0.578194691133403,0.0945458863766883,0.476237211766901,0.59289979968726,-0.0641750431431565,-0.0120298974703001,-0.221266676694206,0.572288177414961,-0.2377176514695,0.574724711264098,0.534479247897695
-0.581081554872813,-0.181667962758099,0.436831544391025,0.0878803534399483,0.47552623722439,0.59798964680297,-0.0632629119440733,-0.00727108022534366,-0.215312229461755,0.571293911743455,-0.239661059508598,0.572373537506906,0.537191191776175
-0.430305434287711,-0.383114354767329,0.304439246759669,0.0828299203436994,0.472702559440065,0.601710716696812,-0.0624093605751551,-0.00252993624202139,-0.209313727644256,0.570296075971617,-0.241550658744384,0.570212537423719,0.539697440383344
-0.308444444683644,-0.551523111937491,0.184864568512897,0.0791426727983963,0.468029605909843,0.604171951711264,-0.0615994976094446,0.00217372458472815,-0.203284314302216,0.56933965685145,-0.243322557843498,0.568300447267099,0.541923509009146
-0.212550826277527,-0.677053330794919,0.0798635678333455,0.0765441982931441,0.461886957499483,0.605510308331083,-0.0608210632539869,0.00682330740177478,-0.197235903002004,0.568473928791571,-0.244927214764207,0.566677535097971,0.543805684934804
-0.133263567716412,-0.755090404002351,-0.0113899502606574,0.0748216281727281,0.454726472628799,0.605867392357035,-0.0600642341216575,0.0114063745524162,-0.191179014498563,0.567744484894766,-0.246332265916178,0.56536381994947,0.545298418971045
-0.0604638105558164,-0.786654632106238,-0.0916115149876098,0.0738594931309206,0.447017981251558,0.605367100968883,-0.0593208285151393,0.015915096821818,-0.185122842031934,0.567185096727077,-0.247523042279113,0.564361661853572,0.546378370931229
0.0119115110058713,-0.777872019128525,-0.163746622298487,0.0736232334827245,0.439195581798687,0.604105026220541,-0.0585834148820711,0.0203461646370692,-0.179075481395987,0.56681163746866,-0.248500608191828,0.563661032687101,0.547045021537075
0.0833434569352987,-0.738855520000969,-0.229380186424637,0.0741060101719841,0.431612177906342,0.602154108115013,-0.0578447686637975,0.0247002034355943,-0.173044185724309,0.566619694439549,-0.249277914010528,0.563245506543789,0.547318136752312
0.146856482204479,-0.682060405778628,-0.28810933622488,0.0752635117172366,0.424507832080746,0.599581376439854,-0.0570979210543514,0.0289808034855298,-0.167035508301535,0.566586734111247,-0.249874499986829,0.563097546920445,0.547232454846805
0.191789739351437,-0.620298511396527,-0.338068686662762,0.0769632446745699,0.417996271298173,0.596465202263505,-0.0563367872723924,0.0331933240024244,-0.161055275408018,0.566678549498819,-0.2503099808901,0.563202284066545,0.5468304327915
0.208395889209033,-0.564806712635139,-0.377162733802717,0.0789706746669259,0.412070978981317,0.592903761099266,-0.0555571176756849,0.0373436602538218,-0.155108430591204,0.566858225058285,-0.250597307988406,0.563549712659486,0.546154248609444
0.192074047582223,-0.523550045988709,-0.404047054475157,0.0809795262004358,0.4066294289915,0.589012428095965,-0.0547573666713481,0.0414371622936859,-0.149198849645228,0.567094816186957,-0.250737569866738,0.564135903151005,0.545238317882377
0.144860932144616,-0.499914975164699,-0.418191440687169,0.0826707029486237,0.401512337689035,0.584915951558242,-0.0539391155256028,0.0454778711270886,-0.143329207746957,0.567369123105026,-0.250717735724123,0.564963689697615,0.544103780967988
0.0738257706144591,-0.492327030749663,-0.419612813413225,0.0837706383119727,0.396551361462765,0.580741646225828,-0.0531069088192998,0.0494681896228476,-0.137500919758036,0.567675428920691,-0.250511585453121,0.566042469290699,0.542756368836665
-0.0115770260826843,-0.494986875098796,-0.408949237423291,0.0840883838841853,0.391615025736825,0.576613551909734,-0.052267613708319,0.0534090215588455,-0.131714143767359,0.568019793793421,-0.250083302477737,0.567386229639658,0.541188250145919
-0.101260363774073,-0.499242065157462,-0.387567038790704,0.0835306987844552,0.386644114838846,0.572645686466753,-0.0514295182949758,0.0573003172617239,-0.125967847575476,0.568416124258082,-0.249393466282928,0.569009312696594,0.539383361555912
-0.185515457159544,-0.495311461316423,-0.357470200671514,0.0821033215293407,0.381671581009779,0.56893521620753,-0.0506013481934068,0.061141895740967,-0.120259943062105,0.568881036714382,-0.24840740554661,0.570920399243786,0.537324878135833
-0.256287953841057,-0.474193148765164,-0.321158214589695,0.0799008063238914,0.376824291762674,0.565556790069313,-0.0497913275541407,0.0649343751048293,-0.114587483030721,0.569428458031555,-0.247105004652251,0.573115974168996,0.535003203739884
-0.308664460055348,-0.429291847174892,-0.28139929331229,0.0770825461039631,0.372307100586276,0.562558718467891,-0.0490064107920014,0.068680032066574,-0.108946905488034,0.570065108980818,-0.245489816884709,0.575574624543064,0.53242311455337
-0.341447311993563,-0.357510152494447,-0.240944398889579,0.0738384890932722,0.368373324391231,0.559961715944971,-0.0482518056160152,0.0723834341914616,-0.10333430331597,0.570787957908853,-0.243595176982779,0.578253219071907,0.529609017568571
-0.356183867829511,-0.259742661460504,-0.202200848322184,0.0703568350437105,0.365287294124759,0.557760705647,-0.0475308289953303,0.0760517372840415,-0.0977456912080103,0.571583860919953,-0.241486249615929,0.58108579415009,0.526607615800639
-0.355479759165183,-0.140957565428493,-0.166900806768664,0.0668050187582907,0.363284026793616,0.555929913309635,-0.0468450197263203,0.0796945938886334,-0.0921772381132272,0.572430690590409,-0.239258149325114,0.583985779404496,0.523487585244418
-0.341785581815029,-0.010309823615049,-0.136014089647899,0.0633251939029433,0.362527923651701,0.55443005476564,-0.0461943686630142,0.08332365364086,-0.0866254382728508,0.573299303324547,-0.237030342914971,0.58685180668998,0.520335932191797
-0.317119474867309,0.118919549493613,-0.109834710594167,0.0600371704690853,0.363071206084396,0.553215526702518,-0.045577556841154,0.0869516492895405,-0.08108721036551,0.574156126503855,-0.234937345252689,0.5895766895752,0.517250919103346
-0.283455032233996,0.230372909194271,-0.0882977299306342,0.0570407997831324,0.364817902181137,0.552239580437983,-0.0449921669898929,0.0905910948308681,-0.0755599348298075,0.574966597915809,-0.233115784536357,0.592058367327751,0.514331927803746
-0.242942289703075,0.307447715419593,-0.0721233257579954,0.0544153150230007,0.367507239107509,0.551452191097628,-0.0444348864158623,0.0942527205373114,-0.0700414759721294,0.575699961280858,-0.231688169655811,0.594211344616395,0.511666907813994
-0.197565258141035,0.337977624654571,-0.0640621240086361,0.0522192791333338,0.370734599611182,0.550785979786884,-0.0439017134450806,0.0979439297309048,-0.0645302851177069,0.576334704738903,-0.230745673180425,0.595976988984924,0.509319321273499
-0.148963599576638,0.318585720403709,-0.0684387196345422,0.0504931366942991,0.374017650139776,0.550138191506756,-0.0433881513659424,0.10166769097966,-0.0590256642612387,0.576862133943782,-0.230335448561412,0.597330123581369,0.507318817924297
-0.0992128660494727,0.255695389155578,-0.0895478906959073,0.0492587562157223,0.376889289490875,0.549362974393193,-0.0428893919013923,0.105422225677813,-0.0535281584317389,0.577286159336251,-0.230457524951206,0.598279723782462,0.505659363151664
-0.0521777956445749,0.163136556453017,-0.130703793677021,0.0485083047568057,0.37898368302222,0.548276431909417,-0.0424005565965297,0.109201590540378,-0.0480399614002259,0.577619828381905,-0.231071477345169,0.59886395540255,0.504304738364803
-0.0141404847749756,0.0584424440478943,-0.193527553435963,0.0481832152042616,0.380091811828027,0.54666999111194,-0.0419170989967243,0.11299696801463,-0.0425652292851191,0.577880411477827,-0.232109400202093,0.59914123756321,0.50319900021688
0.00717124852810872,-0.0411760841937836,-0.276950397221403,0.048154870872581,0.380178377430599,0.544332317296742,-0.0414354085663401,0.116798318960923,-0.0371102177430757,0.578084610842001,-0.233491250087242,0.599179088692951,0.502279243562218
0.00483030565413527,-0.122770783692586,-0.377067605602136,0.0482213804930458,0.37935887689447,0.541076943220713,-0.040953527309512,0.120596005232548,-0.0316831714404884,0.578245033319872,-0.235139100584591,0.59904304869535,0.501487497976719
-0.0249333804652479,-0.180291147611445,-0.488293552512504,0.048127366968544,0.377843801041252,0.536764853368228,-0.040471783572204,0.124382018622227,-0.0262939624575437,0.578368516965005,-0.236987585431138,0.598788193947663,0.50077883513994
-0.0812646972043772,-0.21501660497024,-0.604852283905945,0.0476028784297495,0.375867496081646,0.531313840124224,-0.0399931323452126,0.128150575107841,-0.0209535689900815,0.578456160267377,-0.238989043013997,0.598454725962456,0.500124633407691
-0.158381426867332,-0.234102567350345,-0.721606290343837,0.0464111496589446,0.373622134023345,0.524696263191064,-0.0395230622047691,0.131898023258366,-0.015673518473505,0.578504505509205,-0.2411131665443,0.598067632477133,0.499511846714097
-0.246401370572528,-0.248107325815931,-0.834334724929741,0.044393737521299,0.371211318360816,0.516931274052784,-0.0390690377688679,0.135622190520287,-0.0104653807872858,0.578507271000418,-0.243342335513352,0.597639417467197,0.498939847913579
-0.333199783907562,-0.268418496528197,-0.940158798528441,0.0415022335984522,0.368628923052398,0.508073522373582,-0.0386395579132691,0.139321391727353,-0.00534035680515394,0.578456979494309,-0.245665106030354,0.597174671784838,0.49841608113311
-0.406950036732647,-0.305268590715711,-1.03786568047176,0.0378079863448048,0.365760721419481,0.49819811591667,-0.0382430068135528,0.142993339949712,-0.000308998613702687,0.578346006111764,-0.248070403924817,0.596675386661467,0.497951257517779
-0.45884795479534,-0.366304155284331,-1.12742733062365,0.0334854982367186,0.362403091492783,0.487386366799281,-0.0378865393906452,0.146634159014274,0.00461892379987707,0.578167120333892,-0.250543768936838,0.596145950735756,0.497554626380964
-0.485390180896227,-0.455309650514044,-1.2090176553728,0.0287708094078144,0.358295256267093,0.475718857807387,-0.0375752578524226,0.150237650753073,0.00943444992291041,0.577913933993394,-0.253066090232544,0.595596785925402,0.497229833644386
-0.489374349865906,-0.571262354703386,-1.282439062923,0.0239034886035574,0.353162630044308,0.463276290153997,-0.0373118863623657,0.15379494018463,0.0141294256627173,0.577581492042347,-0.255614935207166,0.595045710734786,0.496972058656526
-0.478928238882157,-0.708463924047471,-1.34724851471414,0.0190684775093708,0.346764232453856,0.4501425682039,-0.0370970265318011,0.157294574497121,0.0186965199545068,0.577167068434732,-0.25816779673893,0.594516580433864,0.496767148099237
-0.464433784633002,-0.858156601967786,-1.40321526713433,0.0143581692413486,0.338931363627082,0.436404965232746,-0.0369298932980475,0.160723052477526,0.02312925762169,0.576671276373432,-0.260705530063461,0.59403571142735,0.496592830344105
-0.454150691600468,-1.0110199116811,-1.4508651756754,0.00977174870973496,0.32958571486214,0.422149278956786,-0.0368092437082921,0.164065637869972,0.0274220288426377,0.576099490691193,-0.263214158716124,0.593627656938103,0.496421079724551
-0.450316906349689,-1.1591851226205,-1.49192884342167,0.00525591256953785,0.318734923493935,0.407450024799389,-0.0367341054018957,0.167307241061752,0.0315700253614186,0.575463038980532,-0.265684512586385,0.593312277012205,0.496220286249583
-0.447712637544619,-1.29676839453082,-1.5290776627608,0.000772266699619978,0.30645538971148,0.392359708206565,-0.0367039645055499,0.170433192627779,0.0355690740264483,0.574779078948394,-0.268110704166329,0.593104269899186,0.495956636957329
-0.435738874735834,-1.41924083379773,-1.56468527609222,-0.00363848901222862,0.29287557737314,0.376905609450389,-0.0367182956171129,0.173429847463202,0.0394154006147331,0.574068403893225,-0.270488964987043,0.593014867168588,0.495595152103756
-0.403324636468626,-1.52265861364115,-1.5995339624481,-0.00782730471869724,0.278166313939248,0.361099229195776,-0.0367756245857676,0.176285056919764,0.0431054248079639,0.573351530185061,-0.272817853984106,0.593054321112767,0.495101013522929
-0.344375823554481,-1.60327315160218,-1.63248769477734,-0.0115593051692591,0.262536888916333,0.344953836847737,-0.0368725576352074,0.178988572934042,0.0466356901381815,0.572644342022891,-0.275100068535338,0.593233454548075,0.494441582237962
-0.260948837107184,-1.65773920935462,-1.66118147899759,-0.0145794266230138,0.246232060914852,0.328500206916951,-0.0370032512941687,0.181532417683198,0.0500029603570049,0.571954771233361,-0.277345421360003,0.593562721568494,0.493589457422096
-0.162470553228141,-1.68416158421906,-1.68325660547848,-0.0166900217251367,0.229522790750285,0.311792732432659,-0.0371595985359095,0.183911191941524,0.053204425053753,0.571281543019998,-0.279573852986501,0.594048550621282,0.492526322987643
-0.0618034267390535,-1.68350506923245,-1.69747461891797,-0.017804889775419,0.21268469128633,0.294903792248765,-0.0373320730934122,0.186122229351707,0.0562379076771601,0.570615198728394,-0.281816799767462,0.594688932365218,0.491246028046334
0.0292807714540643,-1.66020878848963,-1.70403506541243,-0.0179610012022903,0.195966355801022,0.277910959765202,-0.0375109025483008,0.188165484587144,0.0591019814372299,0.569940853549549,-0.284115560812954,0.5954710576966,0.489755031627899
0.103146283745737,-1.62132020793399,-1.70417979425812,-0.0172923640767376,0.179558944622206,0.260884601404937,-0.0376871693746959,0.19004311108926,0.0617959592430806,0.569241796231247,-0.286516538113413,0.596372435746886,0.488069635085256
0.157227527734493,-1.57452448600073,-1.69976398519579,-0.0159839931697828,0.163579954955835,0.243879598445756,-0.0378535511609285,0.19175880558715,0.0643197802423341,0.568502899223107,-0.289064594896973,0.597365032789177,0.486210994479512
0.193114511284047,-1.52604553406672,-1.6929846332993,-0.0142257811251364,0.1480773386588,0.226930571291369,-0.0380046000324031,0.193317092055223,0.0666738310910197,0.567712750560635,-0.291796607180432,0.598420854302971,0.484199807955527
0.214596607555602,-1.47940339619522,-1.6860464948449,-0.0121807236813845,0.133050327810793,0.210050131588737,-0.0381366325564357,0.194722730387571,0.0688587346054202,0.566863878070613,-0.294737149655292,0.599517007109647,0.482052605571333
0.225662255506072,-1.43562848971142,-1.68091032719176,-0.00997292751652248,0.118475402184562,0.193230063416642,-0.0382474008124253,0.195980359037548,0.0708751355804471,0.56595133727473,-0.297897360554828,0.600638605874652,0.479780691091634
0.229204635773515,-1.3946061619121,-1.67921798607321,-0.00769209121057088,0.104324462729746,0.176444137788406,-0.0383357259060607,0.197094358362119,0.0727235065864724,0.564970568850208,-0.301276854914847,0.601778931957275,0.477391485133587
0.226865307085256,-1.35644191455712,-1.68200370379675,-0.00540523964672335,0.0905694561507026,0.159652745277145,-0.0384012125603472,0.198068827956522,0.0744039910018001,0.563915526495834,-0.304867418690596,0.602937469886871,0.474891085833665
0.219938688579168,-1.32205120943645,-1.68907544081056,-0.00316471781884756,0.0771772243340371,0.142812065492197,-0.0384440623476751,0.198907561358945,0.0759163150556468,0.562777759703721,-0.308656864112492,0.604116925867579,0.472286854887375
0.21057883129349,-1.29301454304064,-1.69860224804694,-0.00100562836993061,0.0641021293749539,0.125888392985998,-0.038464914078619,0.19961395812749,0.0772598173480378,0.561546514700267,-0.312632304075612,0.605320057668227,0.469589376009394
0.202148024384612,-1.2712144290332,-1.70747564950692,0.00106450775801357,0.051281218317887,0.108872719436317,-0.0384646196816785,0.200190874865954,0.0784336229101494,0.560209372760736,-0.316783087006987,0.606547003688087,0.466813310408294
0.19793333701457,-1.25874177107244,-1.71231657756843,0.00307141641456315,0.0386316711206611,0.0917884742390287,-0.0384439400608157,0.200640439313147,0.0794369288785261,0.558753194816941,-0.321103262642906,0.607793821196576,0.463976543498921
0.198780854764094,-1.25810210571426,-1.71040036888671,0.00506148922301014,0.0260476855400299,0.0746896054448414,-0.0384032755326278,0.200963836096451,0.0802693192769455,0.557165934553891,-0.325592203665131,0.609052640370345,0.461097299431567
0.201474460503902,-1.2722706825085,-1.70022435541535,0.00706926764890378,0.0133960554022184,0.0576511977614197,-0.0383426217482682,0.201161054801162,0.0809310232929768,0.555440041843061,-0.330251617936887,0.610313369088249,0.45818972083581
0.19957610905254,-1.30413707713834,-1.68197266051402,0.00908102234623966,0.000514250407286512,0.0407549286198613,-0.0382618702982925,0.201230606330209,0.0814230539248832,0.553577518486036,-0.335078175521114,0.611566621566153,0.455259063284242
0.186804999943509,-1.35535351113402,-1.6578545508759,0.0110194297407736,-0.012782968730773,0.0240705085010002,-0.0381613680378574,0.201169262738592,0.0817471811104875,0.551595688069304,-0.340053055448018,0.612807341490425,0.452297776469503
0.161301505810158,-1.42516299639131,-1.63225777551742,0.0127664641190956,-0.0266853174650974,0.00763466280712216,-0.0380424385685581,0.200971921307613,0.0819057069670281,0.549531668134434,-0.345132203701955,0.614038145352498,0.449283722982798
0.128680419570865,-1.50977476212286,-1.61178911631662,0.0142228755955544,-0.0413597724543659,-0.00857085571395952,-0.0379074918699848,0.200631695858015,0.0819010260024939,0.547443210928213,-0.350241639203195,0.615271545221157,0.446181185862915
0.102230067644754,-1.60204695022649,-1.60452786314271,0.0153839298811861,-0.0569186472128103,-0.0246377246731677,-0.0377594578426011,0.200140303759679,0.0817349831005583,0.545404527910434,-0.355279905236992,0.616531241288649,0.442943922392743
0.0991565370839095,-1.69108192867248,-1.61739856477409,0.0163973647543831,-0.0733840578040028,-0.0407326408746631,-0.0376005513694233,0.199488790234595,0.0814081312728191,0.543496970058189,-0.360127658079039,0.617852766444346,0.439519137718876
0.133302232105633,-1.76276008613779,-1.65233078948975,0.0175661604498845,-0.0906530340747519,-0.0570665717078938,-0.037430733743402,0.198668604775202,0.0809191352099063,0.541795673647097,-0.364663441397784,0.61928226673461,0.435852608840716
0.207675969191806,-1.80271413213815,-1.70396193686782,0.0192775533059254,-0.108480171362829,-0.0738333194015931,-0.0372465151746229,0.197672938748014,0.0802646357543589,0.540355466879273,-0.36878265958019,0.620871420868139,0.431895818636651
0.311550387309949,-1.80114765640147,-1.76109093779147,0.0218801869379878,-0.126499246502225,-0.091143867836801,-0.0370407264734033,0.196498041658688,0.0794397498181669,0.539201086627879,-0.37241434982528,0.622668197305004,0.42761437801887
0.424252771341204,-1.75686811875576,-1.81138694003586,0.0255657045807972,-0.144289091574709,-0.108991541287849,-0.0368034970158094,0.195144099968304,0.0784390727725437,0.538325206780582,-0.375530750705614,0.624706065649191,0.422995222857457
0.523101795498812,-1.67793113054615,-1.84630047996704,0.030308979264551,-0.161462854017916,-0.127265262449775,-0.0365241235965827,0.193615340240341,0.0772577887538556,0.53769404107789,-0.378147625823383,0.626995875854386,0.418049833076224
0.59054775730274,-1.57809736516518,-1.86340613250507,0.0358837288781124,-0.17774276269317,-0.145799079574047,-0.0361931600558694,0.191919312156785,0.0758924670437364,0.537257670848142,-0.380316614104218,0.629523373237152,0.412812052512097
0.617242475169087,-1.47111532419707,-1.86638666276742,0.0419291818900252,-0.192988592336679,-0.164433327612321,-0.0358040955020287,0.190065655381636,0.0743413050078046,0.536961286520535,-0.382113604425576,0.632252154209732,0.407331540134398
0.601204938553558,-1.36620419065599,-1.86393134374633,0.0480279208081921,-0.207174956107642,-0.183070201706801,-0.0353543099885376,0.188064837639414,0.072603787361209,0.536753668803107,-0.38362767166039,0.635129895734997,0.401665686991662
0.544939421596084,-1.26649104206479,-1.86688077146398,0.053765144458494,-0.220338198467944,-0.201709546344764,-0.0348453446622042,0.185927271866537,0.0706798886209512,0.536590831549878,-0.384952807354617,0.638096128871914,0.395872385908751
0.451904954019116,-1.16982291311541,-1.88269066148414,0.0587558681861237,-0.232519534440543,-0.220442687571416,-0.0342827395989811,0.183662983201994,0.0685691274513703,0.536435332940263,-0.386182347037873,0.641090199650991,0.39000472345991
0.323631969464833,-1.07077265805874,-1.90924886231078,0.0626400546530971,-0.243722278493111,-0.239387669252302,-0.033675759984785,0.181281774137326,0.0662699756672517,0.536253685741501,-0.387405663752768,0.644056933858594,0.384108711395095
0.159478795668122,-0.963661269566799,-1.93209005562655,0.0650621103283155,-0.253894214327936,-0.258579647903901,-0.0330372491598779,0.178793691673221,0.0637801390814706,0.536014603217564,-0.388706707698224,0.646947263940699,0.378225697444752
-0.0395954574621846,-0.847259827297858,-1.9280147339285,0.0656680288688989,-0.262948586008957,-0.277865455913587,-0.0323835984638918,0.176209477671536,0.0610979135623832,0.535690019786224,-0.390162796877167,0.649713706193991,0.372399375158029
-0.264479922579335,-0.730447641142563,-1.87576075318791,0.064154153818245,-0.270836889547857,-0.296869617411081,-0.0317344875504561,0.173540550293752,0.0582242381957599,0.535259563448808,-0.391840948540289,0.652304695653406,0.366683044075064
-0.492714343665007,-0.634852610220687,-1.76965241409635,0.0603746843365769,-0.277663157001371,-0.315081967309414,-0.031111843359682,0.170798050061006,0.0551644802721574,0.53471753504021,-0.393789607970621,0.654664451217289,0.36113897420139
-0.689693319722953,-0.589697484806321,-1.62656308746858,0.0544691478691908,-0.283785673673204,-0.33204832887915,-0.0305376241986532,0.167990805907633,0.0519288287912146,0.534079501757919,-0.396026599216856,0.6567432047996,0.35582352573192
-0.818989472291249,-0.61889174268121,-1.47913099258672,0.0469322357586734,-0.289828386007339,-0.347562083341338,-0.0300306172805138,0.16512273560923,0.0485307767301121,0.53338450739823,-0.398528366218506,0.658515464639315,0.350761302622771
-0.858629113417955,-0.72728149928286,-1.3593310561899,0.0385506446796811,-0.296559018413857,-0.361739677647132,-0.0296032028783221,0.162190798587124,0.0449842679251698,0.532690582428872,-0.401227269673239,0.659996273838037,0.345922447930246
-0.813714004348088,-0.895084951888131,-1.28371802387886,0.0301954309404046,-0.30467061686641,-0.374940207109388,-0.0292594725002216,0.159184650410723,0.0413008685013872,0.532064691874403,-0.40402092394244,0.661244313221885,0.341218720044799
-0.716010289282483,-1.08440970360402,-1.24856404195081,0.0225533113218054,-0.314567856340569,-0.387586901500447,-0.0289957287889106,0.156088458044688,0.037488232958338,0.531570574530274,-0.406792251576143,0.662347928795694,0.336523416081587
-0.609989691182884,-1.25365874277286,-1.23544462955803,0.0159298132690322,-0.326257964769151,-0.399992228919903,-0.0288033131659564,0.15288432893914,0.0335503373062363,0.531258509517943,-0.409433790090609,0.663399992637528,0.331705920003458
-0.53394630358524,-1.37128783058842,-1.22267181072584,0.0102166351447453,-0.339382463832655,-0.412268095183234,-0.0286725809238875,0.149556126796131,0.0294890356857206,0.531160282251874,-0.411867223694884,0.664473137073492,0.326664345638899
-0.506749327850762,-1.42237344344645,-1.19634272609869,0.00501965883711893,-0.353350536399527,-0.424348451929268,-0.0285963994539782,0.14609246179497,0.0253059529501581,0.531289984046357,-0.414051325227814,0.665605928881458,0.321342808176818
-0.526310558049969,-1.40726863550441,-1.15586370939408,-0.000139138742831052,-0.367498512990979,-0.436094768168643,-0.0285719968535067,0.142488216548017,0.0210037368496685,0.531647641169639,-0.415978110180407,0.666804049171726,0.315729880590491
-0.57857253843706,-1.33644864878672,-1.11269810930262,-0.00565705237571252,-0.381216865609132,-0.447422861324038,-0.0286009778090995,0.138744639655017,0.0165861487022051,0.532221800770688,-0.417662480245957,0.668052651212534,0.309844578114749
-0.649744820528402,-1.22560804846103,-1.08402757424276,-0.0117921373209862,-0.394026915292069,-0.458391773803677,-0.028688223757583,0.134868420750511,0.0120570755265665,0.532990428344019,-0.419130505565423,0.669332016615322,0.303719400321741
-0.73408112250569,-1.09184402955115,-1.08385573391449,-0.018704765186603,-0.405613941878827,-0.469216474406375,-0.0288407082701209,0.130870216464656,0.00741903428551626,0.533922296340829,-0.420409056396117,0.670629576764737,0.297387251809171
-0.834336644624212,-0.950284256767785,-1.11567815439532,-0.0265403521726988,-0.41582434950712,-0.480199427909835,-0.0290669338569174,0.126763025007726,0.00267195477393522,0.534980160742757,-0.421518811788053,0.671944795154451,0.290875078315906
-0.956892848040229,-0.811268400761849,-1.17039479415732,-0.0354899977864673,-0.424631878991466,-0.49161507671451,-0.0293770856067132,0.122560743865233,-0.00218711774918651,0.536124738011368,-0.422472338633746,0.67328698857701,0.284204186095977
-1.10509986980998,-0.678722262771707,-1.22955425964234,-0.0457934595261647,-0.432081598505831,-0.50360010604542,-0.0297835028932764,0.118277176477747,-0.00716319366298615,0.537317850391792,-0.423277071205872,0.674668545644002,0.277395750076185
-1.27356763606656,-0.550396669810036,-1.27196406154011,-0.0576802952059938,-0.438226959365437,-0.516092981713243,-0.0303008716669372,0.113925633688391,-0.0122616591017795,0.538523748861898,-0.4239412466114,0.676096817384789,0.270479361237526
-1.44539657927559,-0.420475359428167,-1.28118235219242,-0.0712686144331509,-0.443081085708326,-0.528843997843817,-0.0309456162151329,0.109519093463022,-0.0174863439995648,0.539707974367905,-0.424480828325341,0.677567768358279,0.263501893863985
-1.59412998427493,-0.284147309749512,-1.25091968043826,-0.0864597454013498,-0.446603965250912,-0.541489792068882,-0.0317342580143054,0.105070668208226,-0.0228380129491283,0.54083358880992,-0.424925888722404,0.679063710630315,0.256533614197916
-1.69077046366695,-0.142274013761103,-1.18634298757812,-0.102877745791506,-0.448735838065163,-0.553661389470876,-0.0326809454702697,0.100593969191645,-0.0283137688568271,0.541856223909701,-0.425324200090088,0.680556129499978,0.249668804675427
-1.71324584324512,-0.00377892710311856,-1.10117243001381,-0.119891325476512,-0.449465868966182,-0.565084250620747,-0.0337947908266098,0.0961029606564884,-0.0339074970572852,0.542721195169628,-0.425739287445924,0.682012609292152,0.243019678637755
-1.6534574920146,0.115597020138365,-1.0122500993239,-0.136718340303257,-0.448906544697703,-0.575636647329347,-0.0350778391555086,0.091611098588169,-0.0396111015470356,0.543365900886595,-0.426241855520538,0.683404906124135,0.236704695013788
-1.5182495553376,0.198063626633104,-0.933879078979322,-0.152570373690465,-0.447338007660544,-0.585352577282774,-0.0365242827254772,0.0871298758263778,-0.0454160476700962,0.543728155617231,-0.426896592549389,0.684714942277241,0.230834225974141
-1.32489335667188,0.230115350325916,-0.87329258048883,-0.166779586400958,-0.445196878972446,-0.594373719642027,-0.0381210325259344,0.0826672013932128,-0.0513146791547202,0.543757351874923,-0.427749223417576,0.685936941524979,0.225497353419035
-1.0948413536876,0.206925031121058,-0.828545653117975,-0.178871758103202,-0.443011443261909,-0.602868194871972,-0.0398492892484551,0.078226159782041,-0.0573008887272902,0.543423597136062,-0.428819127036978,0.687075689869306,0.220753135319899
-0.849089421260523,0.132513467911387,-0.790237813651074,-0.188584910128389,-0.441314016963445,-0.610947396267729,-0.0416865725896131,0.0738045324809143,-0.0633699666829887,0.542722131318722,-0.430099412321858,0.688142270963481,0.216627326555258
-0.606160207930033,0.0169672062777164,-0.746596097545199,-0.195854656424788,-0.440566379789197,-0.618616849885622,-0.043608770422379,0.0693951304971511,-0.0695177879137555,0.541673746468624,-0.431561981493119,0.689149310931903,0.213112730165192
-0.381863522181824,-0.126250592364614,-0.689304771182672,-0.200788273225794,-0.441112562916329,-0.625781638291173,-0.0455919850706319,0.0649867357836234,-0.0757397803546394,0.540323119967523,-0.433163773090652,0.690107438054625,0.210170872511189
-0.189113775229989,-0.281641624450329,-0.617028969207925,-0.203636657863299,-0.443151790197102,-0.632298591055037,-0.0476141097260774,0.0605654140180563,-0.0820301815013705,0.538736070286093,-0.434851965372006,0.691023544271546,0.207734628907155
-0.0363199089421617,-0.432742464292956,-0.535373156050367,-0.204757324434606,-0.446723476837516,-0.63804588574324,-0.0496560796375669,0.0561160376828832,-0.0883819038853619,0.536995642494111,-0.436567768203583,0.691900565882481,0.205713078435917
0.0753329687982101,-0.564167980090594,-0.454244240266938,-0.204555757285772,-0.451707795256131,-0.642979256786738,-0.0517026450461688,0.051623881322415,-0.0947870295980118,0.535196482320263,-0.438249224652889,0.692738464365621,0.203999417625442
0.15341409166971,-0.664456519484245,-0.384015019081356,-0.203405520133879,-0.457850683950703,-0.647155837145391,-0.053742451433267,0.0470760889263808,-0.101237705067672,0.533437266159987,-0.439833522514644,0.693536303082351,0.202480991332482
0.212557340511406,-0.728086347907054,-0.331745701038439,-0.20156916112342,-0.464813164484357,-0.650719924807901,-0.0557673248395535,0.0424627696842055,-0.107727083877439,0.531812054854312,-0.441258912077661,0.694295152894167,0.20104912705938
0.269894586481493,-0.755031718653681,-0.298802054938025,-0.199150399638901,-0.472228521013859,-0.653857947649695,-0.0577709226433651,0.0377775612567144,-0.114249973239727,0.530402096052174,-0.44246633495636,0.695021022095952,0.199606958241553
0.339831580214797,-0.748286126707493,-0.280337458948968,-0.196095266955866,-0.479744876437362,-0.656738929281042,-0.059747150976339,0.0330176942694583,-0.120802957624381,0.529268528689415,-0.44340217785039,0.695726498337256,0.198075674245609
0.43017720614521,-0.7117947211549,-0.26613380795999,-0.192238721174513,-0.487045046873372,-0.659456569677498,-0.0616888209169909,0.0281837446529046,-0.127383935119173,0.528445578650937,-0.444024120598874,0.696429869241732,0.196400834923421
0.540511780868467,-0.650498680526179,-0.242681354424586,-0.187378774389891,-0.493856280078475,-0.661985929551332,-0.0635869083948129,0.0232792380181454,-0.133991147615317,0.527935136600521,-0.444309832056402,0.697151467644584,0.194558720805835
0.663066952548921,-0.571632239415863,-0.196691789262391,-0.18135437887325,-0.499966700874883,-0.664168079331678,-0.0654305741611286,0.0183101231133786,-0.140621917659732,0.527705156179162,-0.444265293774494,0.697908413937814,0.192560283143213
0.785733181870681,-0.48518047364269,-0.119257793554198,-0.174103876351598,-0.505250530636873,-0.665733111307673,-0.0672078654372528,0.0132840369558198,-0.147271423612929,0.527693870912795,-0.443928725827427,0.698709795881073,0.190449694476355
0.895628037843257,-0.402255736954422,-0.00904568287169383,-0.165690568403475,-0.509687477886557,-0.666359912751714,-0.0689068376610282,0.00820934691320269,-0.153931888733226,0.527819656071453,-0.443367814474254,0.699554111073895,0.18829614290407
0.981322988829739,-0.331958774861771,0.127041918939636,-0.156299311420556,-0.513358316642335,-0.665755215633285,-0.0705167870601484,0.00309411794055823,-0.160592464375151,0.52799399016884,-0.442670794045356,0.700429648443176,0.186180616678026
1.03325197502505,-0.278991276384499,0.276188057850441,-0.146219934751729,-0.516412833095264,-0.663724349811247,-0.0720293832910098,-0.00205473780812976,-0.167239862202374,0.528134160180074,-0.441934097513509,0.701317007093154,0.1841820237366
1.04367072451085,-0.243975235799827,0.423425063508974,-0.135828819404496,-0.519027431852884,-0.660211568266361,-0.0734396270617909,-0.0072319391328705,-0.173859541792762,0.528173620057309,-0.441249437555631,0.702192290087044,0.182366522900201
1.00780152573568,-0.225539402215456,0.554987602424571,-0.125564956303709,-0.521374771239658,-0.655304788998605,-0.0747465959403319,-0.0124339501483332,-0.180437123579087,0.528069611780699,-0.440691967854452,0.703030060502556,0.180781106900374
0.926072771384351,-0.221466742363025,0.660838953436207,-0.115889082968555,-0.523609568159248,-0.649210940281212,-0.0759538661366932,-0.0176588718453277,-0.186959702225486,0.527807894823112,-0.440310747936693,0.703805853049957,0.179450808375016
0.805596501729333,-0.22799730020084,0.736122980374465,-0.107224234753433,-0.525856654568765,-0.64221141467407,-0.0770694327253032,-0.0229062029589678,-0.193416814000262,0.527403605815572,-0.440123321034875,0.704498248942219,0.17837913580717
0.65917531085173,-0.238675233408673,0.781122045702581,-0.0998938738409743,-0.52818978343351,-0.634610473605597,-0.0781050232682752,-0.0281764351489792,-0.19980092344166,0.526897206366614,-0.440116024926607,0.705090520282841,0.177551617095234
0.501708844445445,-0.244353521260489,0.800125429692779,-0.0940829512149348,-0.530604693403554,-0.626689520290531,-0.0790749073935548,-0.0334704075331645,-0.206107423411141,0.526345742853257,-0.44025019097584,0.705571703485116,0.176942079695876
0.345610165161113,-0.234804057076891,0.799718305527255,-0.0898398543173483,-0.533000247491938,-0.618675585676343,-0.0799945214212162,-0.0387884322376419,-0.212334248940975,0.525811576723498,-0.440472415931586,0.705936765214058,0.176520593999829
0.197895451766643,-0.201107741552133,0.786873533307872,-0.0871158243831558,-0.535179572681781,-0.610727910544078,-0.0808792998147187,-0.0441293313385105,-0.218481266422078,0.525352040189757,-0.440725646073727,0.706185629427835,0.176261157238256
0.0605873033846651,-0.137738001893809,0.767586824230498,-0.0858169087578456,-0.536873567595709,-0.602940892818298,-0.0817439634804237,-0.049489597039898,-0.224549610438889,0.525012675283715,-0.44095802453261,0.706321364729698,0.176147214335372
-0.0666456187866715,-0.0438637691053301,0.74621513911498,-0.085840698485302,-0.537781342647402,-0.595357167063482,-0.0826022515166395,-0.0548628715911135,-0.230541100738298,0.52482450002871,-0.44112800770466,0.706348392494415,0.176173986186065
-0.183916605477903,0.0762962029491079,0.72489842304645,-0.0870870077570712,-0.537618946674881,-0.587986883314586,-0.0834668900478513,-0.060239873037725,-0.236457820990189,0.524804352648209,-0.441205617915719,0.706271596569227,0.176347458276715
-0.28977731030608,0.214481892322189,0.703215253375218,-0.0894489754864374,-0.536164822395222,-0.58083159899439,-0.0843495699640689,-0.0656087918830755,-0.242301913401734,0.524957264406217,-0.441170276904348,0.706096749333766,0.176680609868689
-0.381034686864424,0.360874966790292,0.679003153029335,-0.0927965336227363,-0.533287804296357,-0.573905791024278,-0.0852607975096147,-0.0709560550165334,-0.248075600351827,0.525279690325343,-0.441006427214078,0.705832012707803,0.177188453135182
-0.453391713645458,0.506862762228755,0.650406690324294,-0.096962163775732,-0.52894888184796,-0.567244025869422,-0.0862095909966071,-0.0762672384472549,-0.253781349436295,0.525762034228508,-0.440699354686412,0.705489556603536,0.177884365997207
-0.5024773789963,0.646358823816111,0.618039297822362,-0.101735007389387,-0.523182540114433,-0.5608870799906,-0.0872030768524327,-0.0815278955570669,-0.259422004965596,0.526389439663635,-0.44023362934328,0.705086069572071,0.178779595875079
-0.524598873070748,0.775244239352872,0.585993989465339,-0.106863886800169,-0.516074290995286,-0.554852197616073,-0.0882460713233804,-0.0867241797126155,-0.265000701353629,0.527141149884482,-0.43959489941826,0.70464152780576,0.179885657559129
-0.517136911835749,0.89015903313433,0.56128760270092,-0.112066063875148,-0.507747040829548,-0.549101073717153,-0.089340721076757,-0.0918432863717397,-0.270520467710295,0.527989625193679,-0.43877385412395,0.704176604785555,0.181217465763487
-0.479422749133679,0.988438173277185,0.552122355276963,-0.117042360330441,-0.498353820994188,-0.543519307989175,-0.090486263197785,-0.0968737906808584,-0.275983569618827,0.528900673324865,-0.437770285227772,0.703709688440138,0.182794774333359
-0.414300360995527,1.06958388235243,0.565509042298929,-0.121504474031533,-0.488063476912738,-0.537916435063207,-0.0916789973695948,-0.101805877170393,-0.281390748334089,0.529834995689712,-0.436595860267412,0.703254267451809,0.184641185683642
-0.329157203154181,1.13641618371339,0.604971664710067,-0.125215260002728,-0.477033242779106,-0.532049315590074,-0.0929125960397661,-0.106631360768852,-0.286740577087355,0.5307506403112,-0.435275264409998,0.702816969364124,0.186781984077391
-0.235032052144748,1.19422213178669,0.669285965548031,-0.128029704429669,-0.465379817398303,-0.525663311500695,-0.0941788208619281,-0.111343426069739,-0.292029140222809,0.531606195987752,-0.433845171517703,0.702396406649697,0.189241928398017
-0.143626017322095,1.24856221896368,0.752957931667137,-0.12991649292745,-0.453165661841249,-0.51853737607653,-0.0954685518487137,-0.115936153465937,-0.297250143660695,0.532365032097222,-0.432350173252084,0.701983155549893,0.192042832756734
-0.0636836831740994,1.30330193059695,0.848137018093294,-0.130946539580377,-0.440406107290144,-0.51051718538964,-0.0967728670112528,-0.120404012311594,-0.302395416468026,0.532999979417684,-0.430836012235865,0.701561145461243,0.195200695901817
0.00114546955984118,1.35951770741526,0.946735200482288,-0.131252728798895,-0.42709177529678,-0.501528108358673,-0.0980838633531492,-0.124741501724529,-0.307455642936767,0.53349679551102,-0.429342143036552,0.701110305287125,0.198723006248518
0.0518877340925221,1.41540491336992,1.04177258919959,-0.130981060931079,-0.413216928389552,-0.491570853472175,-0.0993950323017991,-0.12894304524296,-0.312421137745922,0.533855184323649,-0.427895810513056,0.700609886542706,0.202607019608784
0.0918502688509675,1.46742973915283,1.12791960510628,-0.130255869066808,-0.398802521323636,-0.480707676562557,-0.100701216951789,-0.133003142491526,-0.317282530396095,0.534087361435285,-0.426508815660806,0.700041704977385,0.206839386508149
0.123818520632865,1.51236270144163,1.20183211523435,-0.129171023269835,-0.383903325317362,-0.469044202022766,-0.101998351413472,-0.136916671724731,-0.322031289789022,0.534214786095102,-0.425177426044578,0.699392486603873,0.211397418105149
0.148241522610079,1.54893320672884,1.26254556851638,-0.127804221204067,-0.368596611973207,-0.456707597665924,-0.103283227635841,-0.140679171411184,-0.326660048787465,0.534263824619001,-0.423885418330929,0.698654624757933,0.216252244229376
0.162985481952815,1.57816605319824,1.31145335733458,-0.126241584331699,-0.352960881870269,-0.44382288709858,-0.10455345666352,-0.144286958880401,-0.331162701211288,0.534261306942134,-0.422609296722033,0.697825189333501,0.221373538075929
0.164538365209558,1.60258887941866,1.35142393147534,-0.124597463246333,-0.337056873403883,-0.430493784716442,-0.10580765190141,-0.147737047656772,-0.335534284570363,0.534231029644273,-0.421323875879021,0.696903699213745,0.22673471856268
0.150163478461886,1.62512139069364,1.38537792264838,-0.123017452178422,-0.320918088250019,-0.416795059507735,-0.107045726478534,-0.151026922465042,-0.339770728791484,0.534191924565358,-0.420006491501452,0.695889524419951,0.232317249958703
0.120128879098801,1.64822503097004,1.41515766793301,-0.121659488541065,-0.304551122338398,-0.402777665616739,-0.108269111182131,-0.154154268517984,-0.343868592417106,0.534157758012371,-0.418638992850357,0.694779903090799,0.238112934301302
0.0786851545598966,1.67324139904386,1.44106036481046,-0.120658916523218,-0.287943556385026,-0.388481859514934,-0.109480703207453,-0.157116741911601,-0.347824890042765,0.534137517049192,-0.417207775253174,0.693569383840953,0.244123523953146
0.0329387023737566,1.69979181826258,1.46191644180563,-0.120094295388996,-0.271078156495192,-0.373952259543765,-0.110684469267014,-0.159911850476002,-0.351637060638058,0.53413584488601,-0.415702706074078,0.69225085702063,0.250357564944223
-0.00969754867924522,1.72561217425368,1.47584822742055,-0.11997158777097,-0.253950902729308,-0.359248720259545,-0.111884798682814,-0.162536995772124,-0.355303065537075,0.534153580922948,-0.414115627286012,0.69081757284125,0.256825388695178
-0.043826934736598,1.74708057334554,1.48158025121047,-0.120232708338495,-0.23658720518801,-0.344446861928301,-0.113085820163361,-0.164989686311711,-0.358821543448014,0.534188751108576,-0.412438808601231,0.689265158212059,0.263533961802956
-0.0668901315271915,1.76014398698715,1.47953169185233,-0.120779791820261,-0.219050848583044,-0.329626586274899,-0.114290882664155,-0.167267876580566,-0.36219191068903,0.534238061152612,-0.410663758206214,0.687592737628166,0.270483269118168
-0.0783517670402178,1.76119122960807,1.47213111477779,-0.121499499463544,-0.201443938696766,-0.31485355630366,-0.115502279120574,-0.169370350516965,-0.365414311401923,0.534298553521398,-0.408780813887461,0.685802692486747,0.277665210064882
-0.078159289805098,1.74761105218111,1.46324561712233,-0.122275552898217,-0.183899693484517,-0.300161956706071,-0.116721154382383,-0.171297068677872,-0.368489388966971,0.534369071782515,-0.40677942728111,0.683899334521759,0.285064717044816
-0.0655894882216868,1.71807355996009,1.45689059560747,-0.122987794938797,-0.166571036620509,-0.285546559704333,-0.117947471121568,-0.173049422328397,-0.371417931549023,0.534451455198783,-0.40464829952015,0.681887531829077,0.292661561649977
-0.0390192212970482,1.6728144977696,1.45587643529072,-0.123504336636837,-0.149616362528558,-0.270968008611754,-0.119179931779446,-0.174630359324142,-0.374200504390604,0.534551502038144,-0.402374491939989,0.67977239675806,0.300431270860081
0.00354612194604176,1.61403463116065,1.46117036784726,-0.123675200284039,-0.133181883080605,-0.256368058657975,-0.12041582946405,-0.176044350552188,-0.376837184726952,0.534679485905291,-0.399941738185488,0.677560230185596,0.308344917065397
0.0637006967284444,1.54596222684597,1.47209863800886,-0.123332464341112,-0.11738166498727,-0.241686997690606,-0.121650867787176,-0.177297168292527,-0.379327460008695,0.534849739675838,-0.397329371341254,0.675259830616703,0.316368910915332
0.141980464773719,1.47410046080748,1.48690730932923,-0.122297556684048,-0.1022811177457,-0.226877252015827,-0.122879017892302,-0.178395482206192,-0.381670281257227,0.535078987970933,-0.394513091052213,0.672883212893922,0.32446583707069
0.237363254123157,1.40394881173508,1.50333447344897,-0.12039433624001,-0.0878906375796849,-0.211911327163848,-0.124092477356922,-0.179346340982819,-0.383864224153126,0.535383676249293,-0.391467541612309,0.670445515546256,0.332596292453362
0.346978119222784,1.3399024146965,1.51923575730306,-0.117466127523727,-0.0741711476442247,-0.196783760071999,-0.125281779675741,-0.180156649908939,-0.385907699589305,0.535777116884621,-0.38816977798245,0.667964254575511,0.340721086951248
0.466184474755206,1.28473762366899,1.53315309879778,-0.113393812704283,-0.061047713649095,-0.181507099853406,-0.126436079376881,-0.180832744215405,-0.387799153888932,0.53626742524392,-0.384602523486999,0.665458077806502,0.348803231395244
0.589141439784458,1.23977763148876,1.54460683729088,-0.108110681282031,-0.048424903570004,-0.166103584234874,-0.127543601846812,-0.181380107301501,-0.389537207309373,0.536856840904151,-0.380756280778188,0.662945296605743,0.35680936188769
0.709904038099236,1.20558501746496,1.554218602463,-0.101608952043059,-0.0361978565219331,-0.150594741098016,-0.128592200013438,-0.18180322110196,-0.391120698936038,0.537542448985912,-0.376629773222364,0.660442529987901,0.364710562013058
0.823727173413338,1.18268765636961,1.56372490695531,-0.0939342941359422,-0.024256259349458,-0.134990307612836,-0.129569916244333,-0.182105491681317,-0.392548624179592,0.538317733775615,-0.372229021240353,0.657963581941624,0.372482882945893
0.927873875272391,1.17175138346914,1.57558006601209,-0.0851697870429599,-0.012483830346962,-0.119279066809911,-0.130465436650227,-0.1822891921298,-0.393819971051706,0.539174028158167,-0.367566162374131,0.655518482679325,0.380107882716271
1.02149272521403,1.17302456361002,1.5920003756497,-0.0754164521909741,-0.000759716808263897,-0.103426448663513,-0.131268367846397,-0.182355409865576,-0.394933498629073,0.540101216512073,-0.362658934192239,0.65311280305385,0.387573012295583
1.10464724682715,1.18552641899888,1.61398235532933,-0.0647792504812145,0.0110332719080829,-0.0873818190705298,-0.131969346359758,-0.182304042090077,-0.395887539967743,0.541087827661984,-0.357530648211806,0.650747670985424,0.394871203118595
1.17696652448359,1.20676205145187,1.64089651338117,-0.0533646797751071,0.022994948063639,-0.0710927087888889,-0.13256006601104,-0.182133900990218,-0.39667991260704,0.542121181872266,-0.352209770319104,0.648420768741288,0.401999264330345
1.2367838016194,1.2333719397061,1.67067050761956,-0.0412894262950385,0.0351958518227311,-0.0545201577457967,-0.13303333654139,-0.181842946990786,-0.397307976939714,0.543188121618855,-0.34672849088036,0.64612806051597,0.408955434684366
1.28140052510593,1.2622653472663,1.70043607318611,-0.0286920028118581,0.0476742720608953,-0.0376499089036798,-0.133383243686925,-0.181428596371368,-0.397768827272961,0.544276298490114,-0.341120422218752,0.643865657202224,0.415736916718672
1.30826337106906,1.29134178920626,1.72734276024472,-0.0157371814814295,0.0604425415465604,-0.0204962987984372,-0.133605389608391,-0.180888012303331,-0.398059558311472,0.545375594271307,-0.335418184140225,0.641631214861689,0.422338119326691
1.31638462330718,1.31947821898741,1.74899480745349,-0.00260743965999458,0.0734968753908311,-0.0030998950218576,-0.133697112714098,-0.180218315218644,-0.398177539280573,0.546479215880471,-0.329651711529595,0.639424574257868,0.428749844934571
1.30732691997381,1.34622646735238,1.76357438925109,0.010517619905964,0.0868256326258323,0.0144776668997538,-0.133657561812869,-0.17941670267856,-0.398120650421184,0.547584059708335,-0.323847744462063,0.637247734449327,0.434959378447429
1.28530945662597,1.37163459151103,1.77014801346249,0.0234873036385166,0.100415171723452,0.0321609948514102,-0.133487537195146,-0.178480498656814,-0.397887457112428,0.548690029827344,-0.318030631466097,0.635104378119541,0.440951468430184
1.25638550207208,1.39618234851072,1.76915343270757,0.0362022802815605,0.114254490226863,0.049872218020349,-0.133189089275546,-0.177407150347062,-0.397477291048069,0.549798301757106,-0.312224262034661,0.632999212456847,0.44671001176482
1.22681674148042,1.42078705171157,1.76268137333383,0.0486247933488767,0.128339571031276,0.0675461079886444,-0.132764953907394,-0.176194180040772,-0.396890199418024,0.550909005877921,-0.306454530756616,0.630937382649339,0.452219976335571
1.2011414025348,1.44684211920522,1.7542371971016,0.0607710859185065,0.142677950689163,0.0851454167789101,-0.132217974511057,-0.17483909243217,-0.396126741794186,0.552019121241084,-0.300751553650812,0.628923944124002,0.457469195977558
1.18090815272611,1.47613049623863,1.74794404458172,0.0726878355443647,0.157293047569684,0.102671038925415,-0.131550679903742,-0.173339237440875,-0.395187659515665,0.553121257272535,-0.295150983462993,0.626963127978636,0.4624500058053
1.164737935482,1.51055122737968,1.74746903663985,0.0844225678349589,0.172226689991078,0.120162820269612,-0.130765127886846,-0.171691638753072,-0.39407349021969,0.554203540303762,-0.289694150206985,0.625057149264797,0.467160888135549
1.14958271796815,1.5515392730043,1.75499276635356,0.0960006729517633,0.1875373762963,0.137689845222667,-0.129863011682912,-0.169892818421635,-0.392784226892228,0.55525035287891,-0.28442730865899,0.623204524306189,0.471608176987154
1.13243393220781,1.59909712640378,1.77044974265593,0.107417258052197,0.203290792096643,0.155331773705803,-0.128845922027892,-0.16793867757967,-0.391319118797586,0.556243507121221,-0.279400388205598,0.621398412276607,0.475807310868757
1.11146170091778,1.6509436993429,1.79127068710405,0.118643238067378,0.219541230028679,0.173155091792692,-0.127715619547294,-0.165824517469043,-0.389676684470094,0.557163544180896,-0.274665153821171,0.619626136484054,0.479782543761255
1.0859608181404,1.70258385004783,1.81289941999178,0.129636852512223,0.236309101578935,0.191190658266259,-0.126474219094396,-0.163545265811005,-0.387854955719799,0.557990965904696,-0.270272507495058,0.617870772263427,0.4835644346348
1.05542247437764,1.74846186857918,1.83015913764293,0.140350270824367,0.253564563975372,0.209420666992521,-0.125124283477713,-0.161095897483234,-0.385851899093505,0.55870726363746,-0.266269178290235,0.616114322294745,0.487185857876306
1.01856721833523,1.78348027797314,1.83891252981733,0.150726721137485,0.271224508511436,0.227780741267911,-0.123668898517904,-0.1584719521208,-0.383665892052203,0.559295688592101,-0.262694641168553,0.614340941161267,0.490678169716875
0.972925931230797,1.80399879519922,1.8371028368272,0.160690688734869,0.2891621376806,0.246175534039222,-0.122111811468542,-0.155670018889839,-0.381296110675667,0.559741804315237,-0.259579189084494,0.612538857843808,0.494068724700889
0.915230532449576,1.80798975323644,1.82483623714414,0.170137972902824,0.30722231422608,0.264499945347168,-0.120457668160354,-0.152688096630306,-0.378742733278735,0.560033999476112,-0.25694352602762,0.61070048409398,0.497379998181131
0.842580317779704,1.79471059435993,1.80393557026471,0.178933529003524,0.325236049767365,0.2826585203223,-0.118712310650822,-0.149525804810339,-0.376006940950388,0.560164192739839,-0.254799429597032,0.608821064752365,0.500629842261673
0.753911770506207,1.76438494353286,1.77731724993767,0.186922491294508,0.343031761260131,0.300579500361401,-0.116883030549332,-0.146184465755201,-0.373090750846969,0.560128766499353,-0.253150648231132,0.606896783274129,0.503832123520906
0.651149184899509,1.71798964638097,1.74813657071843,0.19395429792109,0.360443868013002,0.31822148540277,-0.114978646603254,-0.142667087608836,-0.369996745918149,0.559929475165358,-0.251993476895035,0.604923202273271,0.506997228586951
0.539525781262441,1.65706247471434,1.71885498667457,0.199914174601453,0.377319362421781,0.335571159127823,-0.113009304240641,-0.138978271456662,-0.366727782695496,0.559573883617922,-0.251316979465806,0.602894655795146,0.510132216801284
0.426677041962898,1.58352405544935,1.69072022474926,0.204751690567134,0.393522528875902,0.352633751123031,-0.110985974914798,-0.135124062000173,-0.363286758144241,0.559074943049859,-0.251103175802299,0.600804933106839,0.513240524033599
0.320676960481054,1.49957056212042,1.6639788594342,0.208494962428907,0.408938235767053,0.369421962482037,-0.108919741649818,-0.131111758176959,-0.359676479576216,0.55844971262639,-0.251327522400289,0.598649019526776,0.516321359592323
0.227981682456127,1.40771129046758,1.63853597745862,0.211244757493147,0.423474878833295,0.385949252604589,-0.106821043050208,-0.126949692603957,-0.355899623500783,0.557717650741422,-0.251959832798027,0.596425033626514,0.519369275151573
0.152082242516059,1.31084273649,1.61440581391755,0.213151578967561,0.437067882771385,0.402228677499559,-0.104699061367904,-0.122646978795933,-0.351958733850262,0.556898948410618,-0.252965680079788,0.594135371942826,0.522374468908348
0.0929578313431844,1.21211654497992,1.59178636056429,0.214383281186411,0.449682912982037,0.418274354310056,-0.102561387067135,-0.118213224817166,-0.347856218691214,0.556013163445728,-0.254308286322953,0.591786480706932,0.52532410837031
0.0472545193920779,1.11456425764747,1.57099672774345,0.215090844789641,0.461316550798477,0.434102985689684,-0.100414016437254,-0.113658227498264,-0.343594331991215,0.555078224469737,-0.255950763651051,0.589387262250144,0.528204530843166
0.00918757654155408,1.02061914596476,1.55228883242033,0.215379557118863,0.47199270161984,0.449734129428591,-0.0982616644277118,-0.108991681236172,-0.339175146415624,0.554109905465353,-0.257858290787887,0.586946624169976,0.531003742842361
-0.0278829180259602,0.931671839119463,1.53554657462894,0.215292582260995,0.481754390348563,0.465188022401926,-0.0961083037308125,-0.10422294577633,-0.334600535656471,0.553121910374702,-0.25999965768564,0.584470957441303,0.533713434508104
-0.0696196244608485,0.84787129851243,1.52003213308197,0.214811571398114,0.490652339840025,0.480480631878569,-0.0939577829625169,-0.0993609121253873,-0.329872192385069,0.552126436171965,-0.262347882776439,0.581962295607768,0.536330004170662
-0.119462856994947,0.76829623047478,1.5043289085579,0.213872660840389,0.498733411288263,0.495617153024857,-0.0918143618013244,-0.0944139833697458,-0.324991703460552,0.551134783850465,-0.264880025266879,0.579417727396282,0.538854451056727
-0.178470776168116,0.691306590235675,1.48660846244546,0.212389494524127,0.506031659195118,0.510586555817962,-0.0896830510245018,-0.0893901580173289,-0.319960684916338,0.55015769732041,-0.267576348427625,0.576830362057034,0.541291177879701
-0.24590765447237,0.614910500026911,1.46514264659327,0.210274104220478,0.512562978449733,0.525360027301245,-0.0875697330307788,-0.0842971848291047,-0.314780952000742,0.549205505057406,-0.270418678726935,0.574191604270144,0.543646073282882
-0.319874582933848,0.537135877730002,1.43866225414341,0.207451694883001,0.51832344414182,0.539893767743016,-0.0854811040352614,-0.0791427527161469,-0.30945468302552,0.548288319233476,-0.273387772200998,0.571493998100281,0.54592458740971
-0.397521175954361,0.456290666303421,1.4061770111155,0.203871217938114,0.52329081066529,0.554132680007399,-0.0834244894711559,-0.0739346814421113,-0.303984550786768,0.54741630773047,-0.276460046893222,0.568733927534955,0.548130411647814
-0.474836192497951,0.371031845537388,1.36653266181456,0.199515932945406,0.527427657027796,0.568010944310138,-0.0814075537167382,-0.0686810891036459,-0.298373832665181,0.546599704592279,-0.279604683900214,0.565913916926298,0.550264865596405
-0.546694402260908,0.28035524122469,1.31836312682165,0.194414781821165,0.530684826264909,0.581450139191408,-0.0794379001429054,-0.0633905266871824,-0.292626527247673,0.545848198757766,-0.282782212702142,0.563044670588854,0.552326590898603
-0.60805147699161,0.183720398829786,1.26051861874344,0.188647554274456,0.533005438268483,0.594359263857322,-0.0775225884624273,-0.0580720753645154,-0.286747480232429,0.545169714887389,-0.285945142072767,0.560146907676975,0.554311103546114
-0.656012086258429,0.0814565552672317,1.19275520084872,0.18233373830776,0.534331556842271,0.606640348893371,-0.0756676819995162,-0.0527353903889617,-0.280742482168676,0.544569061234472,-0.28904033716585,0.557252494470316,0.556210282576534
-0.69127501430587,-0.024724234581408,1.11653148518806,0.175603804654492,0.534615452249002,0.618201498261644,-0.073877994284705,-0.0473906553435053,-0.274618272932901,0.544047119416151,-0.292012262904231,0.55440382705226,0.558012514840256
-0.717752680511071,-0.131508003924317,1.03534047085948,0.168565168029961,0.533834524859776,0.62897557397997,-0.0721571494212827,-0.0420484054579614,-0.268382387571693,0.543600940090318,-0.294806341986704,0.551650512249843,0.559704342480767
-0.74053619245396,-0.234346525572495,0.954015484112114,0.161280225514689,0.532005486015594,0.638937069692916,-0.0705079224535594,-0.0367192054035846,-0.262042824353328,0.543224491591153,-0.297372225729768,0.54904343897528,0.561273741785819
-0.763417731787532,-0.328445463484246,0.877297413958534,0.153766957743036,0.529191759873613,0.648108350121358,-0.0689326865372708,-0.0314132191741385,-0.255607597254257,0.542909528816559,-0.299666966887747,0.546627719584822,0.562714038085044
-0.787163810417092,-0.410081323065983,0.808506718926576,0.146020551881566,0.525499359744164,0.656552086723872,-0.0674337489891478,-0.0261397635760497,-0.249084295070031,0.542646305273844,-0.301657759232274,0.544436599135952,0.564026925943158
-0.809125739009217,-0.477713722786641,0.748795501236428,0.138045605983988,0.521060618318203,0.664353313762776,-0.06601341819982,-0.0209069636857378,-0.242479768067597,0.542424278383624,-0.303323550308238,0.542488008391407,0.565223395481765
-0.824054291852208,-0.532344286126167,0.696895538080354,0.129886207679235,0.516010562076941,0.671596484897448,-0.0646737591315039,-0.0157216077837621,-0.235800019074296,0.542233128905568,-0.304654929195865,0.540784537290937,0.566322074672149
-0.825696213303355,-0.576754178466821,0.649404261437562,0.121643957003011,0.510465303557278,0.678342699833126,-0.0634161083080927,-0.010589228455591,-0.229050323150643,0.542064066509286,-0.305652547332305,0.539316533861915,0.567345348453532
-0.809049463723028,-0.613857530885478,0.601811217866071,0.113476730467432,0.504512478813819,0.684613493167733,-0.0622405048707405,-0.00551433954373553,-0.222235542185639,0.54191083429007,-0.306325377736626,0.53806694695696,0.568314500277768
-0.7729011907828,-0.645238575006036,0.549895750545737,0.105573479044457,0.498217232087664,0.69038674394788,-0.061145253823181,-0.000500690989228112,-0.215360541000061,0.541769881929981,-0.306690002332149,0.537015876590688,0.569245628698733
-0.721152198103517,-0.670858591346916,0.490719340683336,0.098109713949579,0.491636980059202,0.695604535342114,-0.0601268378582108,0.00444858007150621,-0.208430584603611,0.541640006330234,-0.30677065790483,0.536143054488235,0.570147780943895
-0.661412650180043,-0.689864641458445,0.422784856449404,0.0912033915577149,0.484833597698477,0.700186772265867,-0.0591802723306744,0.00933093296029461,-0.201451628065571,0.541522226861608,-0.306598749096815,0.535427810488393,0.571023593753113
-0.601500327606995,-0.701750712504967,0.345490942630541,0.0848953285183334,0.477875754731962,0.704042867199355,-0.0582997787302941,0.0141444797224468,-0.194430479868245,0.541420030015458,-0.306211212967711,0.534847770313632,0.571871407522216
-0.546321837124633,-0.707134104681689,0.25857497875346,0.0791627195442289,0.470831564449331,0.707077912744363,-0.0574794884899813,0.0188880163183533,-0.187374875968526,0.541339419007667,-0.305648222894705,0.534378180090573,0.572687312512541
-0.496972028268196,-0.707704004749414,0.162264190698227,0.0739527520668184,0.463757607705478,0.70919682452971,-0.0567139111319261,0.0235609621791273,-0.180293502282156,0.541288346863378,-0.304950807766041,0.533992886897227,0.573466238880648
-0.451921057573807,-0.705516516498477,0.0579373399267018,0.0692147884871621,0.456691738902541,0.710312548120923,-0.0559980734291562,0.0281632089121674,-0.173195955418903,0.541275522286801,-0.304158638291465,0.5336666396742,0.574202272221802
-0.408975485034431,-0.702327781285715,-0.0514672881898506,0.0649168076236745,0.449652751216922,0.710359614317696,-0.055327415448602,0.0326949313627647,-0.16609259460671,0.541308805051312,-0.303308220159704,0.533377558332026,0.574888929642274
-0.366802049997326,-0.699426088158577,-0.16172247038719,0.0610444217980694,0.442644215673003,0.709308381462899,-0.0546976093014933,0.0371564161972144,-0.158994254627807,0.541393611303441,-0.302431663561553,0.533108633666855,0.575519965965621
-0.325377976284338,-0.697892039384276,-0.268327523106737,0.0575900235162148,0.435657858838591,0.707172847433518,-0.0541044370749219,0.0415479265697723,-0.151911848483325,0.541531857496776,-0.301555853458154,0.532847882385788,0.576090660224758
-0.285392576871372,-0.699009347727408,-0.367906392196413,0.0545426725999899,0.428673585706335,0.704006393795091,-0.0535437735943408,0.0458695837924969,-0.144855952277182,0.541721812021105,-0.300701603195328,0.532587768843599,0.576598901052133
-0.247294055008113,-0.70439210641751,-0.459195705014033,0.0518857412901461,0.421656812238913,0.699885599247127,-0.0530116315248902,0.0501212357822232,-0.137836492311971,0.541958797245751,-0.299882588452673,0.532324892432154,0.577045322421003
-0.210827788180516,-0.715497328785413,-0.543128401229323,0.0496016339237566,0.4145575988662,0.694888694653999,-0.0525041946488206,0.0543023078377488,-0.130862620842465,0.542236289916632,-0.299104372295368,0.532060420345029,0.577432324583158
-0.175355135625787,-0.732825943228303,-0.62211726484183,0.0476772211542788,0.407316216309434,0.689077182261732,-0.0520178003734305,0.0584116769136269,-0.123942791457886,0.542546958857948,-0.298364164272379,0.531800872562679,0.577762455385957
-0.14048127031213,-0.755388647770612,-0.698970450697252,0.0461045409741429,0.399875377157742,0.682486459622125,-0.0515488915627884,0.0624476348809628,-0.117084973248467,0.542883404187639,-0.297651864381862,0.531558444799545,0.578036847311597
-0.106441661210158,-0.780653726199707,-0.775937785339992,0.0448764281660851,0.392195399091193,0.675126634380028,-0.0510939867170872,0.0664079887622075,-0.110296907778456,0.543238490357989,-0.296952615287796,0.531350309399607,0.578254213619108
-0.074311777901256,-0.804928192270262,-0.853978973851069,0.0439791628200817,0.384267723302145,0.666991766522161,-0.0506497087621564,0.0702903043741742,-0.103586315773945,0.543605245007099,-0.296250688004783,0.531196804025113,0.578410600569328
-0.0460721902084736,-0.824062472491341,-0.93205861242582,0.0433837448290867,0.376123003781639,0.658076294528865,-0.0502128942239105,0.0740922580095931,-0.0969609754686902,0.543976534907513,-0.295533942899814,0.531118606527162,0.578499994697277
-0.0239300947757218,-0.834311405630178,-1.0068857104466,0.0430402352537194,0.367831368194334,0.648396288852591,-0.0497807743234965,0.0778120298694729,-0.0904286125517829,0.544344953785921,-0.294797651003461,0.531133055479522,0.5785158542578
-0.00882168924028102,-0.833208774120798,-1.07378242995125,0.0428829781831931,0.359494001098881,0.63800766408869,-0.0493511582563119,0.081448656715939,-0.0839965927870765,0.544703082524611,-0.294046796583451,0.531250261038921,0.578453276810908
0.000717814653450541,-0.820277480825658,-1.12837873530646,0.0428489606598126,0.351226803627451,0.62701157420049,-0.0489224985620969,0.0850022607395707,-0.0776714965956306,0.545043725398143,-0.293296813541212,0.531470315017837,0.578311007007065
0.00824347352696639,-0.797291812166881,-1.16811349927657,0.0429002689502684,0.343139190965791,0.615543828965664,-0.0484937524140465,0.0884740907125369,-0.0714587195797998,0.545359761591341,-0.292572959599724,0.531782789520898,0.578092430773372
0.0179276286023379,-0.767902523060185,-1.19283616330012,0.0430376263104685,0.335313453092958,0.603753796590869,-0.0480640629377428,0.0918663539328306,-0.0653622314520172,0.545643828530297,-0.291908167871988,0.532168696874982,0.577805254374518
0.0329458649844999,-0.736693977269649,-1.20442511055845,0.0432984956279564,0.327790704394611,0.591782206159665,-0.0476323823280507,0.0951818747202685,-0.0593845514382645,0.545888241547966,-0.291339371954383,0.53260410120027,0.577460188648142
0.0543737710278813,-0.707988718007794,-1.20582559291483,0.043741595657572,0.320567524721526,0.579745668580387,-0.0471971818716231,0.0984236658658492,-0.0535269120645643,0.546085237359007,-0.290903125037685,0.533064192628752,0.577069191621701
0.0807296224970265,-0.684880315094465,-1.20003412185262,0.0444236144747502,0.313603413359317,0.567731085944638,-0.0467563558209615,0.101594520556253,-0.0477895282919391,0.546227464271678,-0.290631668624172,0.533526701809763,0.57664377992315
0.108214412001606,-0.668916212079544,-1.18945067443054,0.045374836496797,0.306834664526749,0.555798377901311,-0.0463073635661037,0.104696710945684,-0.0421718809727094,0.546308729279663,-0.290550086483247,0.533973964411708,0.576193739021746
0.131683767686131,-0.660428519292973,-1.17575279706241,0.0465808292447894,0.300188174673189,0.543987076481934,-0.0458475852373958,0.107731825141683,-0.0366729537007932,0.54632500175404,-0.290674482846748,0.534393622173818,0.575726318714171
0.1460711328291,-0.659072666261157,-1.16005464665643,0.0479761055969192,0.293590902548721,0.532322755201429,-0.0453748005631872,0.110700720527793,-0.0312914045423764,0.546275583613123,-0.291010852240967,0.534778438027134,0.575245767344174
0.147699980616863,-0.664170656424439,-1.1430775722194,0.0494514630137027,0.286974919738595,0.520821810045138,-0.0448876627201341,0.11360354963923,-0.0260256817161435,0.546164249558163,-0.291554513508199,0.535125831762464,0.574752922861726
0.135076787422535,-0.67476079009022,-1.1252806651389,0.0508718487034533,0.280280496309324,0.509494734796435,-0.0443860461615484,0.116439826719469,-0.0208740989919356,0.545999971414157,-0.292290221530831,0.535437561406599,0.574244787044821
0.109069777908105,-0.689451523523241,-1.10694518596654,0.0520990833796602,0.273459668544559,0.498348321478997,-0.0438711915011328,0.119208527543739,-0.0158348837105585,0.545796833650486,-0.293193063423023,0.535719549289164,0.57371439623487
0.0725916956107376,-0.706242419230591,-1.08825515058313,0.0530138925968081,0.266481432634092,0.487387035734337,-0.0433456266212504,0.121908233049632,-0.0109062069244918,0.545573046981768,-0.29423011401355,0.535981545227967,0.573151353125545
0.0300276622230506,-0.722438393383793,-1.06950110631176,0.0535334912355307,0.259338262374323,0.476612970387951,-0.0428128897020888,0.124537331524674,-0.00608620689388038,0.545349195599625,-0.295362799136656,0.536236394520715,0.572543099632181
-0.0135268858334621,-0.734840207180713,-1.05144457159016,0.0536224969670323,0.252052103174802,0.46602295793653,-0.0422771097610759,0.12709428335242,-0.00137302725225798,0.545145875607194,-0.296549937272271,0.53649890272446,0.571876766784356
-0.0533255493510377,-0.740346513939155,-1.03570653902365,0.0532947366406635,0.244676403372505,0.455601918321549,-0.0417425235930375,0.129577925885156,0.00323509712903242,0.544980994572214,-0.297751222485541,0.536784492180805,0.57114125574821
-0.086128506159606,-0.73669442841487,-1.02481720119902,0.0526039682126639,0.237291432464037,0.445314015558525,-0.0412130300687708,0.131987765064339,0.00773967679843279,0.544867250816649,-0.298930603574886,0.537107981873516,0.570329018235632
-0.110963849417307,-0.722902733378137,-1.02163384755556,0.051625008284333,0.229993680458375,0.43509647625284,-0.0406918851862858,0.134324190628951,0.0121417292574896,0.544810363551113,-0.300058934627754,0.537482746892874,0.569437090739488
-0.129132001443986,-0.69919885945549,-1.02833648614641,0.0504310308795803,0.222883406297509,0.424861340522419,-0.0401816049904663,0.13658857606273,0.0164415183413659,0.544808296078992,-0.301115558650698,0.537920273687121,0.56846734296559
-0.143499190823201,-0.666590238552504,-1.04538763483057,0.049074376767798,0.216054694610771,0.414507435855622,-0.0396840779522294,0.138783266567272,0.0206383622232561,0.544851305136926,-0.302089043484537,0.538429848632523,0.567426262344936
-0.157518256113261,-0.626513243378134,-1.0707046146252,0.0475757913826693,0.20958941100442,0.403941690546432,-0.039200827111477,0.140911487095348,0.0247306078552664,0.544922609192969,-0.302977589448131,0.539017898199826,0.566324673401017
-0.174431271139304,-0.580718146293014,-1.09942947437381,0.0459225455959602,0.203553487859367,0.393105736039526,-0.0387333354265839,0.142977201589667,0.0287158449881962,0.544999664606905,-0.303789372386227,0.539686673476109,0.565177562608279
-0.196962962271445,-0.531352596293037,-1.12486915832629,0.0440720762784601,0.197993367949739,0.381998958814114,-0.0382833623172118,0.144984935868712,0.0325913684624644,0.545056044510871,-0.30454266143311,0.540432684025238,0.564003714302201
-0.227616833945844,-0.481370530996647,-1.14063006159704,0.0419556791469273,0.192929986116593,0.370686178652586,-0.0378532235400849,0.146939552639044,0.0363547941497979,0.545063853693478,-0.305265183957967,0.541245821045895,0.562824594398893
-0.26914526560048,-0.435170392164143,-1.14279584770288,0.0394783704987494,0.188347515304091,0.359283765044175,-0.0374460532918565,0.148845940146147,0.0400046438682817,0.544996791713941,-0.305991851834685,0.542109865717268,0.561662155681062
-0.324328808404566,-0.398806474489616,-1.13083430550213,0.0365175019782778,0.184177864774125,0.347930330216238,-0.0370660739294713,0.150708567046538,0.0435407143445837,0.544834073828566,-0.306760035324532,0.5430045806647,0.560535581475622
-0.394589687998885,-0.379135602289693,-1.10701312808981,0.0329294113458142,0.18028838819353,0.336755808986367,-0.0367188393628509,0.152530898311376,0.0469641450405967,0.544564922831252,-0.307602503122827,0.543909196292415,0.559457354123532
-0.478104972174247,-0.382047230342418,-1.07500167127323,0.0285724398945022,0.176482707833672,0.32586045092764,-0.0364113301066493,0.154314753791512,0.0502772263401668,0.54419254940009,-0.308539477770945,0.544806617622939,0.558429592006474
-0.568734298289656,-0.410590729472773,-1.03851871834162,0.0233447453917364,0.172519751837898,0.315307564917654,-0.0361517441802181,0.15605976608987,0.0534830664193933,0.543736236889918,-0.309572029723307,0.545687275940527,0.557441889332323
-0.656343853259465,-0.463837588350818,-1.00063534402763,0.0172258564835445,0.168147844052083,0.305126510543897,-0.0359488911708417,0.15776310406932,0.056585236796701,0.54323062449087,-0.310678726008224,0.546551561103495,0.556471570591436
-0.728255027846913,-0.536743015147333,-0.963939397239181,0.0103093639275662,0.163145174837894,0.295318352775651,-0.0358112150687861,0.15941956916377,0.0595874611132987,0.542722010848242,-0.311816549218497,0.547410258541675,0.555486514163616
-0.771646684597775,-0.620660793383598,-0.931249521679014,0.00281635721489648,0.157358389598542,0.285857124119149,-0.0357455864630738,0.161022086985952,0.0624933384977727,0.542261974542164,-0.312926377754657,0.548282984452583,0.554449999576834
-0.776692303030103,-0.70429063456993,-0.906136777010443,-0.00491883587368924,0.150733866262077,0.27668490856379,-0.0357560988563678,0.162562548265255,0.0653060486611874,0.541899149526873,-0.313942567541423,0.549194791601175,0.55332671804793
-0.739501773005488,-0.77526607644549,-0.892552403438757,-0.0124933044043135,0.143336316510302,0.267706178599632,-0.0358431595577578,0.164032899179117,0.0680280040970045,0.541670667129398,-0.31480516707055,0.550171122421668,0.552089060940858
-0.663592411880812,-0.822659635512153,-0.893637573190432,-0.0195022734791914,0.135346921753816,0.258789944654575,-0.0360031374471753,0.165426315370438,0.0706604847132756,0.54159506058798,-0.315472421276953,0.551231647059212,0.55072280962454
-0.559147088703429,-0.840271855838917,-0.910756609046607,-0.0256094691325589,0.127032498100363,0.249782689681478,-0.0362286961602341,0.166738212469709,0.0732033478849558,0.541668405838378,-0.315930543677617,0.552384513305762,0.549230897845371
-0.440490727299448,-0.829507648837399,-0.943493773133753,-0.0306011563630196,0.118683834380284,0.240526153708665,-0.036509749287712,0.167966794132112,0.0756548921019066,0.541865188162613,-0.316197579336088,0.553623556348316,0.547633240897353
-0.323023177608449,-0.799885688660741,-0.990199929570005,-0.0344122240380054,0.110537101496095,0.230872401133235,-0.0368348161897171,0.169112898811494,0.0780118848761161,0.542144386262141,-0.316319296181969,0.554930572989951,0.545961195020704
-0.220360724136812,-0.76605730230651,-1.04841453311955,-0.037122641697178,0.102707620344561,0.220694044757875,-0.037192490518393,0.170179122420697,0.0802697171055716,0.542459633761571,-0.316357542683633,0.556282378450859,0.544247523054989
-0.141797001359957,-0.742220669806593,-1.11508735984444,-0.0389269284751082,0.0951664642872979,0.209891251231144,-0.0375727383692544,0.171168492843856,0.0824226435855167,0.542770596449673,-0.316374636619498,0.557659737816145,0.542515240110705
