AccX,AccY,AccZ,VelX,VelY,VelZ,PosX,PosY,PosZ,QuatW,QuatI,QuatJ,QuatK
0.0865771851432951,-0.0960361755504267,-0.371936677563684,-0.00086341724689427,0.00267880853971254,-0.00283656271884913,0,0,0,0.53931165155445,-0.354842791105987,0.583551380985785,0.492643199331227
0.0875901617046057,-0.104434215041392,-0.373547292432565,1.00703621792343e-05,0.00167055575520312,-0.00656235626666652,-4.26673442357518e-06,2.17468214745783e-05,-4.69945949275782e-05,0.539430604348575,-0.354831987834243,0.583382957083904,0.492720213595678
0.0858653343778436,-0.111798507805819,-0.374720195614891,0.000879998717425481,0.000583491309416726,-0.0103020674047399,1.83610974448398e-07,3.30170567976775e-05,-0.000131316713284611,0.539537468499374,-0.354832512580516,0.583217470314059,0.492798732163096
0.0803818956196149,-0.117767434652708,-0.375056770709694,0.00171388574224677,-0.000570239234426246,-0.014049325934199,1.31530332728097e-05,3.30833171726299e-05,-0.000253073679979305,0.539631670381449,-0.354845397349922,0.5830540088291,0.492879728827651
0.0709488777756955,-0.123059559584352,-0.373909970793799,0.00247319048405733,-0.00178027503716188,-0.0177925333395526,3.40884144043302e-05,2.13307458146893e-05,-0.000412282976348063,0.53971281130445,-0.354871357932706,0.582891861721636,0.492963972488386
0.058131847859466,-0.128863841690235,-0.370504840421827,0.00312124498706713,-0.00304579287508515,-0.0215129810934669,6.20605917599525e-05,-2.79959374654587e-06,-0.000608810548513161,0.539780753297223,-0.354909870383345,0.582731207003789,0.493051784966111
0.0430883481483657,-0.136138485893778,-0.364095538674968,0.00362999684194029,-0.00437670534455555,-0.025184356686787,9.58168009049896e-05,-3.99120848447493e-05,-0.000842297237414431,0.539835899452086,-0.354958565380878,0.582573497360832,0.493142716359347
0.0274516171698904,-0.145197551035284,-0.354084166319055,0.00398534754336557,-0.00578928636075119,-0.0287736289095933,0.000133893522831519,-9.0742043371283e-05,-0.00111208716539633,0.539879508536094,-0.355013140963668,0.582421388563001,0.493235351683436
0.0130352893888663,-0.155676845375539,-0.34016569267312,0.00419043295099336,-0.00729955917435564,-0.0322432519023903,0.000174772425303314,-0.000156186271046817,-0.00141717156945625,0.539913904681765,-0.355067847954503,0.582278277101111,0.493327281727263
0.00135868613996858,-0.166663864266994,-0.322534119406656,0.00426505370347153,-0.00891716355411864,-0.0355551246606253,0.000217049858575638,-0.000237269884689189,-0.00175616345227133,0.539942501684506,-0.355116366583897,0.582147636301671,0.493415231430188
-0.00667946650409874,-0.176789377818573,-0.301976693518657,0.00424110067648488,-0.0106403305960968,-0.038676052423088,0.00025958063047542,-0.000335057355440266,-0.0021273193376899,0.539969543673778,-0.355152821216573,0.582032358096618,0.493495389659449
-0.0108600409688465,-0.184360592108134,-0.279628997887918,0.00415605401395415,-0.0124519812772807,-0.0415824545779571,0.000301566403927615,-0.000450518914807153,-0.00252861187269512,0.539999561819055,-0.355172715893931,0.581934242273665,0.493563929789377
-0.0115632042179395,-0.187677681974536,-0.256610680756231,0.00404658866285422,-0.0143180734792444,-0.0442620266690139,0.000342579617311657,-0.000584369188589779,-0.00295783427892997,0.540036681624737,-0.355173601071002,0.581853707581667,0.493617623850148
-0.00959425885086312,-0.185433454648791,-0.233880442657576,0.00394345222234421,-0.0161895299939113,-0.0467128559839191,0.000382529821737649,-0.000736907205955557,-0.00341270869219464,0.540083920056673,-0.355155378308484,0.5817897303454,0.4936544603459
-0.00594638738039789,-0.176995737430353,-0.212218511497014,0.00386839986602191,-0.0180075767858574,-0.0489417244525282,0.00042158908217948,-0.000907892739854401,-0.00389098159437688,0.540142655125572,-0.355120222762319,0.581739982287091,0.49367411569552
-0.00163193043662755,-0.162542053808482,-0.192211827675762,0.00383315915177078,-0.0197111665736019,-0.0509622498462282,0.000460096877268443,-0.0010964864566517,-0.00439050146587066,0.540212454475597,-0.355072137076024,0.581701150450414,0.493678086475774
0.00240833399229641,-0.143055288537556,-0.174278507988389,0.00383969204438313,-0.0212450541168824,-0.0527930752223851,0.000498461133249213,-0.00130126756010412,-0.00490927809121373,0.540291282229076,-0.355016228914351,0.581669416108192,0.493669421697404
0.00543271249973944,-0.120183464223815,-0.158651551681695,0.0038815481516773,-0.0225671487122396,-0.0544560992185717,0.000537067334229515,-0.00152032857424973,-0.00544552396341851,0.540376005677694,-0.354957842746559,0.581641024079081,0.493652125963991
0.00706808100148895,-0.0959846328146278,-0.145279926443748,0.00394670299401745,-0.0236538900289822,-0.055974130307035,0.000576208589957989,-0.00175143376795584,-0.00599767511104654,0.540463085799051,-0.354901705511893,0.581612810929705,0.493630398654463
0.00735964990674593,-0.0725077874604425,-0.133767143923703,0.00402149252339262,-0.0245022529619079,-0.0573677393567084,0.000616049567545039,-0.00199221448291029,-0.00656438445936526,0.540549244401648,-0.354851258631156,0.581582578703913,0.493607944397979
0.00662253302016204,-0.0513208457982052,-0.123458080267514,0.00409405431286116,-0.0251272969597514,-0.0586522391755007,0.000656627301726308,-0.00224036223251859,-0.00714448435202631,0.54063191881529,-0.354808278774288,0.581549250480252,0.493587563596554
0.00524282125556921,-0.0333185372504973,-0.113688745214355,0.00415603195907382,-0.0255563947065453,-0.0598363470007462,0.000697877733085983,-0.00249378069085007,-0.00773692728290754,0.540709427516436,-0.354772877117512,0.581512762923219,0.493571096412679
0.00351332615857431,-0.018889361720511,-0.104066406203035,0.00420246357097854,-0.0258233350329507,-0.0609234964556692,0.000739670210736245,-0.00275067933954755,-0.00834072650018962,0.540780873371341,-0.354743905959405,0.581473746127615,0.493559612149042
0.00151076770541418,-0.00813176274570346,-0.0946263310569198,0.00423023491513248,-0.0259643414868321,-0.0619153338398052,0.0007818337031668,-0.00300961772214646,-0.00895492065166699,0.540845901712147,-0.354719599160963,0.581433129071344,0.493553677922236
-0.000913617874185146,-0.000953372218409493,-0.0857910762906937,0.00423587153912262,-0.026015667993203,-0.0628157945743794,0.000824164235438075,-0.00326951776954664,-0.00957857629373791,0.540904456010905,-0.354698215887609,0.581391798254927,0.493553565518066
-0.00400308162419936,0.00282745877120044,-0.0780510972282414,0.0042139389164647,-0.0260121983919894,-0.0636333791398102,0.000866413287716012,-0.0035296571014726,-0.0102108221623089,0.540956641013198,-0.354678508272358,0.581350412661458,0.493559283178592
-0.00782291541311337,0.00334940749930196,-0.0715751312760257,0.00415745980611214,-0.0259872148921872,-0.0643798839801677,0.000908270281328896,-0.00378965416789348,-0.0108508884779087,0.541002736292066,-0.354659859527688,0.581309431199567,0.493570429181828
-0.0120530388307643,0.000650717612247664,-0.0662016488185223,0.00406073090972675,-0.0259731150981798,-0.0650671415784766,0.000949361234908091,-0.00404945581784532,-0.011498123605702,0.541043291984222,-0.354642074892207,0.581269355869955,0.493585950814601
-0.0161637208625752,-0.00521620290996436,-0.0616949811286674,0.00392229798609405,-0.0260018433562187,-0.0657049984260487,0.000989276379387195,-0.00430933061011731,-0.0121519843057246,0.541079206123978,-0.354624941762466,0.581231152113892,0.493603880852422
-0.0198243501596311,-0.0139005109293641,-0.0577631058015747,0.00374500850581702,-0.0261033277569657,-0.066300662558536,0.00102761291184675,-0.00456985646568323,-0.0128120126106475,0.541111764197793,-0.354607775423192,0.581196658430114,0.493621138613245
-0.0231368995364463,-0.0244814359971412,-0.0538280980542775,0.00353285313217063,-0.0263011383231485,-0.0668569922756514,0.00106400222003669,-0.0048318787960838,-0.0134778008848185,0.541142617815022,-0.354589275093158,0.581168650862751,0.493633581138463
-0.026459369152635,-0.0354342405622414,-0.048925677712047,0.00328752266355923,-0.0266066175374958,-0.0673691348523192,0.00109810409901534,-0.00509641757538702,-0.0141489315204583,0.541173624480787,-0.354567846800743,0.581150382410961,0.493636488931894
-0.0298176285811633,-0.0449485122111953,-0.0419402641143893,0.00300878854972424,-0.0270144321329133,-0.0678218382592875,0.00112958565508176,-0.00536452282373907,-0.0148248863860163,0.541206569617496,-0.354542194590132,0.581144769145496,0.493625403066843
-0.0323692841918088,-0.0515313481178251,-0.0320265801984838,0.00270050486069338,-0.0275027322661087,-0.068190046178688,0.00115813212213384,-0.00563710864573418,-0.0155049458082062,0.541242889447575,-0.354511872786914,0.581153582573448,0.493596981491582
-0.0325911295051004,-0.0544665748115826,-0.018942066953625,0.00237835366704283,-0.0280386227123061,-0.0684432631122847,0.00118352641477252,-0.00591481542062625,-0.0161881123546611,0.541283432732879,-0.354477635343539,0.581176959257075,0.493549585673885
-0.0291870176187139,-0.0537106627779902,-0.00307228812935922,0.00207211380625776,-0.0285854097318043,-0.0685517085855358,0.00120577875213903,-0.0061979355828468,-0.0168730872131502,0.541328303449006,-0.354441512869517,0.58121333060921,0.493483481143937
-0.021927486306769,-0.0494593100872127,0.014868088277951,0.00181919216146435,-0.0291071604276806,-0.0684911032826289,0.00122523528197764,-0.00648639843364423,-0.017558301272491,0.541376927618667,-0.354406575692223,0.581259631185746,0.493400691631149
-0.011816851979596,-0.0419463733441883,0.0340713979599829,0.00165312134486652,-0.029570089676388,-0.0682447795492754,0.00124259684950929,-0.00677978468416457,-0.0182419806866505,0.541428345034036,-0.354376479393156,0.581311621161328,0.493304629158703
-0.000682602150318453,-0.0315928858093963,0.053585419973662,0.00159327494905095,-0.0299436868037063,-0.0678048691574433,0.00125882883097888,-0.00707735356656504,-0.0189222289301841,0.54148155723605,-0.354354948575756,0.5813643491883,0.49319954084119
0.00941773021658007,-0.0191182411138832,0.0722626532195396,0.00163960146421626,-0.030203143269873,-0.0671740024893135,0.00127499321304522,-0.00737808771693294,-0.0195971232884179,0.541535823248903,-0.354345220907802,0.58141282309441,0.493089794762903
0.0166505841541398,-0.00536264009602941,0.0889645379904378,0.00177259391090386,-0.0303314485074729,-0.0663662402310997,0.00129205418992082,-0.00768076067581967,-0.02026482450202,0.541590843173232,-0.354349428671579,0.581452759341574,0.492979238553819
0.0196620450107685,0.00894368311197161,0.102932801622377,0.0019568079315624,-0.0303194441239435,-0.0654051272308718,0.00131070119913315,-0.00798401513897675,-0.0209236813393298,0.541646778543559,-0.354368004952442,0.581481182798703,0.492870894261806
0.0177332755606753,0.0231792620363942,0.11394924241666,0.00214643540925362,-0.030164730229752,-0.0643190907085127,0.00133121741583723,-0.00828643601074523,-0.0215723024290268,0.541704122507457,-0.354399319840356,0.5814967567023,0.492766970991182
0.0108580839213303,0.0367275603536543,0.12212838857707,0.00229204308149765,-0.0298710969493521,-0.0631370762513802,0.00135340980829098,-0.00858661514664075,-0.0222095832638262,0.5417634699702,-0.354439739349726,0.581499833128917,0.492669014498161
-0.000215599274685785,0.0490512322176213,0.127675571101162,0.00234790637956487,-0.0294481038180461,-0.0618864301508252,0.0013766095555963,-0.00888321115047774,-0.0228347007958372,0.541825250656932,-0.354484122854244,0.581492239564561,0.492578095047885
-0.0139862944188632,0.0598520471730822,0.130888508741009,0.00227954778593113,-0.0289094882526429,-0.0605919834494505,0.00139974682642378,-0.00917499911083118,-0.0234470928638386,0.541889517852577,-0.354526638660294,0.581476787519046,0.492495033983355
-0.0283388180365841,0.069014898640424,0.132292846089012,0.00207057309848789,-0.0282710543551257,-0.0592744503731365,0.00142149743084587,-0.00946090182387003,-0.0240464250329516,0.541955884510414,-0.354561740068954,0.581456542387463,0.492420634253508
-0.0408448990706665,0.0763298138578767,0.132554309285126,0.00172730538778564,-0.0275502316241845,-0.057948588294102,0.00144048682327724,-0.00974000825376658,-0.0246325402262878,0.542023613419887,-0.354585093545495,0.581434087867829,0.492355781316608
-0.0492369881387588,0.0813190762664344,0.132151694594345,0.00127954682657251,-0.0267678880051133,-0.0566234319725408,0.00145552108434903,-0.0100115988519131,-0.025205400327621,0.542091775220571,-0.354594248905981,0.581411074911696,0.492301318148793
-0.0520126864234655,0.0834216096968132,0.13126600032678,0.00077594932859539,-0.0259500854068474,-0.0553047171957713,0.00146579856512487,-0.0102751887189729,-0.0257650410734625,0.542159425465611,-0.354588907832958,0.58138815581329,0.492257733408678
-0.0489130706862845,0.0823969146225386,0.130001816853164,0.00027397141788064,-0.025126893616801,-0.0539967518077077,0.00147104816885725,-0.0105305736140911,-0.0263115484184799,0.542225808298529,-0.354570735363955,0.581365215714396,0.49222479863963
-0.0409272579063589,0.0785651978747146,0.128620054435898,-0.000172579350248577,-0.024327983885865,-0.0527020161490986,0.00147155512919541,-0.0107778480016044,-0.026845042258264,0.542290513767798,-0.354542817778466,0.581341726590334,0.492201367292017
-0.0297816334433303,0.0727038511156414,0.127560445609799,-0.000523472932163023,-0.0235775394724636,-0.0514194873467062,0.00146807486778335,-0.0110173756183961,-0.027365649775743,0.54235348741223,-0.354508961715013,0.581317051507219,0.49218551013057
-0.0173205118472408,0.0658072802567205,0.127201214271884,-0.000756332783781878,-0.0228908846471521,-0.0501440527451339,0.00146167583920363,-0.0112497177389942,-0.0278734674762022,0.542414914438999,-0.354472977853043,0.581290636447362,0.492174932869148
-0.00519553482158294,0.0589373765066732,0.127526934515887,-0.000866262142291996,-0.0222730621948855,-0.0488687856990312,0.00145356286457326,-0.0114755374732044,-0.028368531668423,0.542475061217963,-0.35443811811867,0.581262101517753,0.492167448862914
0.00513249030589903,0.0531295392524638,0.128061923553044,-0.000863926490036416,-0.0217186284476401,-0.0475892151065227,0.00144491192141162,-0.011695495926417,-0.0288508216724508,0.542534120170511,-0.354406847962615,0.581231185307346,0.49216137982803
0.0124025362907072,0.0491869794780246,0.128120710325134,-0.000773600482219384,-0.021212946685538,-0.046306675634968,0.00143672428655034,-0.0119101538020829,-0.0293203011261582,0.542592102965924,-0.354380962821339,0.58119749871928,0.492155880256744
0.0157572538489076,0.0473391095878152,0.127056301930698,-0.00063015065668731,-0.0207362170717592,-0.0450291642715249,0.0014297055308558,-0.0121198996208694,-0.0297769803256907,0.542648825662986,-0.354361888769308,0.581160236495012,0.492151077730704
0.0150037690870877,0.0470895803847655,0.124378077773791,-0.000473694667173333,-0.0202699744534466,-0.0437703660708386,0.0014241863042365,-0.0123249305784954,-0.0302209779774025,0.542703986388114,-0.354350965257343,0.58111809253641,0.492147883370927
0.0107385667344811,0.0475219032047041,0.119853641078163,-0.000342332113231489,-0.0198028178670496,-0.042547581174415,0.00142010617033448,-0.0125252945400979,-0.0306525677136288,0.542757289547011,-0.354349587687528,0.581069452973506,0.492147523787666
0.00424933652556566,0.0477794344365953,0.11356538910279,-0.000264741722097255,-0.0193322120103934,-0.0413788597213464,0.00141707080115783,-0.0127209696894851,-0.0310721999181076,0.542808507889396,-0.354359212424761,0.581012788456553,0.492151005264168
-0.00278594343680877,0.0473329201223093,0.105859612037743,-0.00025477388181947,-0.0188625510691493,-0.0402801084134799,0.00141447322313825,-0.0129119435048828,-0.0314804947587817,0.542857397485681,-0.354381260839922,0.58094710952184,0.492158738517158
-0.00867945773258437,0.045957433055746,0.097276503866077,-0.000309450012832435,-0.0184020001348093,-0.0392628015317969,0.00141165210366499,-0.0130982662609026,-0.0318782093085081,0.542903546902578,-0.354416948567873,0.58087226965159,0.492170470140426
-0.0121050919147293,0.0435685325926224,0.0884812538624617,-0.000410721886235004,-0.0179602711381178,-0.0383323864409904,0.00140805124416965,-0.0132800776172672,-0.032266185248372,0.542946311605757,-0.354467097577733,0.58078898574952,0.492185466547485
-0.0124345762181542,0.0401746863577498,0.0801666179768172,-0.000530769352065421,-0.0175474558749163,-0.0374875207796301,0.00140334378797815,-0.0134576162523324,-0.0326452847844751,0.542984908647123,-0.354531958896256,0.580698669510264,0.492202737021715
-0.00988052378579733,0.0359423319815621,0.073001029996961,-0.000639693977251179,-0.0171727716147701,-0.0367200562375974,0.00139749147133157,-0.0136312173897808,-0.0330163226695613,0.543018675330417,-0.354611015112533,0.580603221555885,0.492221134574884
-0.00529860772411047,0.0311631139375035,0.0675524786966295,-0.000712938759966718,-0.0168431452167251,-0.0360156623919656,0.00139072830764548,-0.0138012969739383,-0.0333800012627091,0.543047422417517,-0.35470280871226,0.580504837739977,0.492239319699075
0.000230221720637441,0.0261430998373555,0.0641240255065322,-0.000735629815150083,-0.0165625149794011,-0.0353556535687859,0.00138348546476989,-0.0139683252749189,-0.0337368578425129,0.543071752111327,-0.354804891515547,0.580405816275125,0.492255674877782
0.00572670173305922,0.0211906235894015,0.0627970806477895,-0.000703194323047599,-0.0163317471938177,-0.0347194217358504,0.0013762913440789,-0.014132796585785,-0.034087233219036,0.543093171618577,-0.354913893670818,0.580308392247675,0.49226832612673
0.0103158965034639,0.0166885079713289,0.0637234142207335,-0.000620330457030983,-0.0161482523675643,-0.034085192959344,0.00136967372017851,-0.0142951965835919,-0.034431256292512,0.543113887976859,-0.355025665429703,0.580214657059091,0.492275363294425
0.0130245314605323,0.0130275925915277,0.0671517826558687,-0.000500977442377002,-0.0160055726963004,-0.0334291906727971,0.00136406718068147,-0.0144559657089113,-0.0347688282106727,0.543136400654792,-0.355135481029942,0.580126555747906,0.49227514634954
0.0126022318142594,0.0103912592821023,0.0730496344382205,-0.000370192751169043,-0.0158943792684826,-0.0327265572851628,0.00135971132971374,-0.0146154654687352,-0.0350996069504625,0.543163150860712,-0.355238289784172,0.58004588325308,0.492266515557817
0.00745780767862329,0.00867190174165611,0.0808498065778879,-0.000267241678870629,-0.0158049642949141,-0.0319554337779184,0.00135652415756354,-0.0147739621865522,-0.0354230169057779,0.543196391144783,-0.355328962235571,0.579974209458441,0.492248845206297
-0.0040315473408865,0.00760882958253023,0.0896783880268633,-0.000247459502347945,-0.0157294614698435,-0.0311011665027308,0.00135395065165745,-0.014931634315376,-0.0357382999071812,0.543238278469198,-0.355402485740985,0.579912708813506,0.49222199878869
-0.0227360663804043,0.00685719854545624,0.0987918781284614,-0.000378646696120399,-0.0156630321607539,-0.0301571888697903,0.00135082012066511,-0.0150885967835289,-0.0360445916840438,0.543291055728388,-0.355454151069815,0.579861930896051,0.492186261846341
-0.0480156482383978,0.00575849224130526,0.107665360621681,-0.000729754394380409,-0.0156058545383705,-0.0291232763738757,0.0013452781152126,-0.0152449412170246,-0.0363409940102621,0.543357134574332,-0.355479822435687,0.579821644162524,0.492142236664291
-0.07745038712477,0.00310583698968578,0.115585863213886,-0.00135443369636225,-0.0155674337237658,-0.028005393952534,0.00133485717475889,-0.0154008076583352,-0.0366266373618942,0.543438998356528,-0.355476242268099,0.579790945386659,0.492090597243891
-0.107084050516068,-0.00269582409416513,0.121316917958489,-0.00227445500973244,-0.0155712844908386,-0.0268192537445083,0.00131671273122842,-0.0155565012494083,-0.0369007606003794,0.543538997658364,-0.355441204275384,0.579768716179699,0.49203164945677
-0.132173550056434,-0.0130926231660604,0.12342975122607,-0.00346809213776095,-0.01565612755869,-0.0255938940964217,0.00128799999549095,-0.0157126383096559,-0.037162826339584,0.543659099391678,-0.355373642375059,0.579754263475724,0.491964787292174
-0.14842936008267,-0.0287122401281435,0.121174030369948,-0.00486845581362247,-0.0158710527067114,-0.0243692488862777,0.00124631725573403,-0.0158702742109829,-0.0374126420544975,0.543800561235968,-0.355273926862198,0.579747792964788,0.491888079794395
-0.153307393681827,-0.0489483832919058,0.115140192680921,-0.00637448870761096,-0.016265256655362,-0.0231860514688595,0.00119010253312787,-0.0160309557577933,-0.0376504185562732,0.54396358912097,-0.355144477655139,0.579750408220686,0.491798208485594
-0.146634437011145,-0.072196622657255,0.107125459094151,-0.00787154698624182,-0.0168768825166581,-0.0220730969078203,0.0011188723546586,-0.0161966664536534,-0.0378767142981566,0.544147146607241,-0.354990428324551,0.579763636055979,0.491690761499847
-0.130387660599191,-0.0966479248507031,0.0993412100410778,-0.0092540065994595,-0.0177270060857482,-0.0210391372599803,0.0010332445867301,-0.0163696858966654,-0.0380922754689956,0.54434903375563,-0.354819926469166,0.579788781532337,0.491560696190181
-0.108104284394301,-0.120994314672363,0.0936022235311564,-0.010443815449593,-0.0188211181149139,-0.0200727937899553,0.000934755476484834,-0.0165524265176687,-0.0382978351242453,0.54456627227463,-0.354643701493413,0.579826478120673,0.491402762875975
-0.0841935909489542,-0.14454210462768,0.09105819740795,-0.0114026539514752,-0.0201547010429645,-0.0191478653830959,0.000825523129479493,-0.0167473056134581,-0.0384939384201105,0.544795783134995,-0.354473685147081,0.579876684002432,0.49121175939397
-0.0630286743255741,-0.166928256283737,0.0924264912245397,-0.0121361144030139,-0.0217179536790719,-0.0182288156377696,0.000707829287707047,-0.0169566688870683,-0.0386808218252149,0.545035261048522,-0.354320815455667,0.579939157832517,0.490982583358221
-0.0478503489568872,-0.187963017284394,0.0982532997627303,-0.0126878586445922,-0.0234983108784629,-0.0172737903806694,0.000583709422469017,-0.017182750209856,-0.0388583348553071,0.545284031031296,-0.354192556965224,0.580014223753749,0.490710157155967
-0.0397013169029662,-0.207763498058291,0.109051101091928,-0.0131229660990575,-0.0254828442867266,-0.0162356420742322,0.000454655298750768,-0.0174276559856819,-0.0390258820175816,0.545543609429167,-0.354090793541612,0.580103605851952,0.490389321475938
-0.0367496954777633,-0.226900337267366,0.125354077085546,-0.0135025702861271,-0.0276620642949053,-0.015061989881181,0.000321527616824846,-0.0176933805285901,-0.0391823701773586,0.545817802669949,-0.354010537696001,0.580211230070907,0.49001468752308
-0.0346002834940912,-0.246214220252961,0.147575710368396,-0.0138566693061524,-0.0300335379140572,-0.0136957146417474,0.000184731418863448,-0.0179818585396349,-0.0393261586999733,0.54611240441944,-0.353939598556577,0.580343912495269,0.489580376999028
-0.0279257468662535,-0.266148390425208,0.175831668649749,-0.0141666485831201,-0.0326012517989984,-0.0120770514444928,4.4614829417086e-05,-0.0182950324882002,-0.0394550225304045,0.546434690555958,-0.353859238434505,0.580511713658764,0.489079664918234
-0.0128634712877536,-0.285701784762878,0.209945223364875,-0.0143679437990561,-0.0353664035064892,-0.0101465406822559,-9.80581324937951e-05,-0.0186348707647276,-0.0395661404910382,0.546792846438356,-0.35374599807564,0.580727552638064,0.488504720075779
0.0111148119109676,-0.301558098785775,0.249388198820779,-0.0143740362211061,-0.0383086037557828,-0.00784824726916374,-0.000241768032594606,-0.019003245801039,-0.0396561144307953,0.547195354320751,-0.353574802113254,0.581005664372955,0.48784682174521
0.0408989752875528,-0.308284213683327,0.292971520238723,-0.0141113164102795,-0.0413637161496786,-0.00513482237170237,-0.000384194795751534,-0.0194016074005663,-0.0397210297789996,0.547650364067381,-0.353322913187134,0.581358867850681,0.487097387105696
0.0710571747548133,-0.299866083311867,0.338523433388014,-0.0135488847852336,-0.0444103684662049,-0.00197572130140483,-0.000522495801729099,-0.0198304778236457,-0.0397565824973652,0.54816503510589,-0.35297381552245,0.581795325082039,0.486249709054479
0.0960331125219356,-0.271808021038752,0.382859323330636,-0.0127107824740159,-0.0472746398195084,0.00163281878435228,-0.000653794138025347,-0.0202889028650743,-0.0397582970099504,0.5487448009041,-0.352519989693154,0.582315986125643,0.485300826961976
0.11213707212656,-0.222712852773251,0.422204105094515,-0.0116672806759394,-0.0497531450201187,0.00565976222864189,-0.000775684453775123,-0.0207740417892724,-0.0397218341048855,0.549392568026639,-0.351963817093765,0.582913693166196,0.4842529338819
0.118492023531589,-0.154569850427253,0.452852512904814,-0.0105114843228147,-0.0516454593676716,0.0100366716208024,-0.000886578278768893,-0.0212810348112113,-0.0396433519356383,0.550107864983307,-0.351316590966059,0.583574160483843,0.483114053833122
0.116827975161128,-0.0717560708486025,0.471637813572868,-0.00933223345451707,-0.0527829898056012,0.0146607495553547,-0.000985796867655552,-0.0218031770570777,-0.0395198648297575,0.550885977518394,-0.350596352015482,0.584278339187548,0.481897976840826
0.110659255459358,0.020355769413972,0.47625306950494,-0.00819214642658064,-0.0530458921443247,0.0194018302729076,-0.00107341876706104,-0.0223323214668273,-0.0393495519306162,0.551717284172126,-0.34982542129349,0.585005340763188,0.480623516113302
0.104396524191338,0.116235729656081,0.465565865092851,-0.00711421665349316,-0.0523688354805248,0.0241125512480604,-0.00114995058246141,-0.0228593951049516,-0.0391319800230113,0.55258709545255,-0.349028168342832,0.585735247538931,0.479313112102172
0.102497943076903,0.21032721702076,0.439672719668538,-0.00607709344231796,-0.0507419215786909,0.0286403704740312,-0.00121590713294047,-0.0233749488902477,-0.0388682154144009,0.553476196545405,-0.34822916799284,0.58645147247785,0.477990812511296
0.108771075629303,0.296975690291823,0.39969032151913,-0.00501809747395293,-0.0482113078736783,0.0328388119821334,-0.00127138308752182,-0.0238697150375095,-0.03856081950212,0.554362137393968,-0.347451653314042,0.587142481811926,0.476679845687923
0.126212167752452,0.370681297354187,0.347592958745282,-0.00384053038221015,-0.0448789237669986,0.0365768546856193,-0.00131567622680264,-0.0243351661957129,-0.0382137411687813,0.555221155105486,-0.346716031775805,0.587802807492604,0.475400170105966
0.157514545008333,0.426770635696992,0.286179250116337,-0.00241924594357223,-0.040897564933293,0.0397473420320912,-0.00134697510843155,-0.0247640486392143,-0.0378321201851927,0.556030450923554,-0.346038298405944,0.588433394320103,0.474166399200735
0.205891818269364,0.462092141700827,0.219004393993946,-0.000599563252349743,-0.0364591518778543,0.0422748865548065,-0.00136206915441116,-0.0251508322232701,-0.0374220090422582,0.556770383442627,-0.345428529366489,0.589041332356593,0.472986448005039
0.275553577067634,0.475423136351709,0.150151315286451,0.00181031459916925,-0.0317774763191419,0.0441222914033723,-0.00135601539767706,-0.0254920153642551,-0.0369900231524673,0.55742610980127,-0.344889952755991,0.589639014608632,0.47186108660405
0.371200712292784,0.467692971284162,0.0839379457842142,0.00504673692080534,-0.0270677966125129,0.0452943640108895,-0.00132173014007719,-0.0257862417289133,-0.036542939875396,0.557988441425972,-0.344419057405793,0.59024271735915,0.4707843951696
0.496487910387603,0.442035132328598,0.0245483122884853,0.00938783090904128,-0.0225250569259994,0.0458384216034169,-0.00124955730092795,-0.0260342059966059,-0.0360872759473245,0.558453938832516,-0.344006944225474,0.590870558291816,0.469745041347983
0.652031889556476,0.403468003599492,-0.0245977766862091,0.0151330807835957,-0.0183034420779093,0.0458398005835921,-0.00112695274246477,-0.0262383484916254,-0.0356288848363895,0.558824326298437,-0.343641931253335,0.591539878069957,0.468728245441382
0.833440087101617,0.358293051902917,-0.061657869020647,0.0225630915417201,-0.0145005376319476,0.0454101486572217,-0.00093847188083819,-0.0264023683901747,-0.0351726350901854,0.559105418254566,-0.343313261738282,0.592264262280188,0.46771805526269
1.02951075495137,0.313585026573054,-0.0870630293197202,0.0318804966268191,-0.0111470480711181,0.0446681704676837,-0.000666253939995493,-0.0265306063186901,-0.0347222434945609,0.559305944262251,-0.343015548009238,0.593050560817542,0.466699289533242
1.22106584496931,0.276943777229176,-0.103718609423896,0.0431360305012565,-0.0082003048836573,0.0437158885761295,-0.000291171304355116,-0.0266273430834639,-0.0342803231993418,0.559436604004879,-0.342753456724621,0.593896225144418,0.465658703088455
1.38119626337892,0.256272736397289,-0.116509672313753,0.0561499919178316,-0.00554012314707531,0.0426163734696051,0.000205258807740325,-0.0266960452236176,-0.0338486618891131,0.559509427704622,-0.342546086972416,0.594787127445423,0.464585462143139
1.47740522290314,0.259032418772,-0.131350533280822,0.070445650224076,-0.0029694982027792,0.0413786987437961,0.000838237018449863,-0.0267385933303669,-0.0334286865280461,0.559537330778368,-0.342430298491935,0.595696078351918,0.463471302645901
1.4758042983695,0.290499379485086,-0.154027100926956,0.0852143487052732,-0.000227740043044109,0.039953436874921,0.00161653701309661,-0.026754579521596,-0.0330220258499525,0.559533789257834,-0.342461781376656,0.596582651043754,0.462310509775306
1.34730880420685,0.351399841961081,-0.188886252580996,0.0993325650929889,0.00297585523263639,0.0382404964095451,0.00253927158208792,-0.026740838945648,-0.0326310561835302,0.559512777115371,-0.342712182841627,0.597395323703124,0.461099381038635
1.07510772799712,0.436119197407323,-0.237583059318394,0.111447298628843,0.00690754959792807,0.036109776152212,0.00359317090069708,-0.0266914219214952,-0.0322593048207214,0.559489085977078,-0.343260901450568,0.598076817409862,0.45983479281669
0.661695011930095,0.532540369847501,-0.298382467077482,0.120133963203313,0.0117449466026519,0.0334315748223965,0.00475107720985786,-0.0265981594404923,-0.0319115980658484,0.55947873514845,-0.344181583751558,0.598572731002384,0.458512015135163
0.133079789486749,0.624003356682597,-0.366380530862295,0.124110488085231,0.017521764403752,0.0301093861348615,0.00597229946630057,-0.0264518258854603,-0.0315938932610621,0.55949887770077,-0.345525308699948,0.598842473873252,0.457122476350428
-0.46217318438876,0.693247955437814,-0.434344941985002,0.122467671985555,0.0241021201328037,0.0261073850727888,0.0072051902666545,-0.0262437064627775,-0.0313128094050238,0.559566714189963,-0.347304162384724,0.598870339827576,0.455652529056624
-1.05987037744719,0.726926767084638,-0.493612875654686,0.114860105051209,0.0311970929138657,0.0214692222867543,0.00839182915183833,-0.0259672103975442,-0.0310749263682261,0.55969728827731,-0.349479675801225,0.59867384945969,0.454084269348778
-1.59129631595227,0.718696589213196,-0.534882211920689,0.101606922459046,0.0384193088638045,0.0163283731510412,0.0094741642893896,-0.0256191283886558,-0.0308859383910371,0.55990055834788,-0.351959806030747,0.598306794527001,0.452398761407848
-1.99554065184175,0.670293004183506,-0.549005170410988,0.0836753884949098,0.0453583559992377,0.0109105625415467,0.0104005758441594,-0.0252002400643406,-0.0307497437125742,0.560178584988338,-0.354605999138079,0.59785565028983,0.450580913612941
-2.23036497742263,0.591159565857382,-0.528014640240519,0.0625485112234219,0.0516597180178918,0.00552708979045304,0.011131695342751,-0.024715149694255,-0.0306675554509142,0.56052374935793,-0.357249329903466,0.597429430116598,0.448624696957054
-2.27895296051304,0.496658861373907,-0.466690997704837,0.0400045724085776,0.0570929093224979,0.000555187902890116,0.011644460760911,-0.024171386557553,-0.0306371440624475,0.560918643327177,-0.359712775884775,0.597144225646358,0.446537532812731
-2.15051310613631,0.404518744767222,-0.3646037165738,0.0178598929501648,0.0615928965216532,-0.00359965936633921,0.0119337830877047,-0.0235779575283323,-0.0306523664197647,0.561337787441355,-0.361835758137126,0.597104865773344,0.444342831374124
-1.87510156130838,0.33043028718259,-0.22767465765329,-0.00226552951222458,0.0652617408498519,-0.0065594249353108,0.0120117549048945,-0.0229436843414747,-0.030703161841273,0.561750775113766,-0.3634968260306,0.597387276897104,0.442079818048987
-1.4953106274707,0.284764818716339,-0.0677581048556801,-0.019114939581286,0.0683318155477962,-0.00803496244569179,0.0119048525594269,-0.0222757165594865,-0.030776133778178,0.562126176429777,-0.364630497076811,0.598025479400008,0.439800282358194
-1.05750430372999,0.271079648116306,0.100252458960946,-0.0318763633624554,0.0711051370504091,-0.00787086437300161,0.0116498960447082,-0.0215785317964955,-0.0308556629122715,0.562435670744777,-0.365235052451096,0.599006218388759,0.437562593312678
-0.604379965886286,0.285819646069565,0.262234139430146,-0.0401831338357028,0.0738837326897881,-0.00605680507888229,0.0112895985587174,-0.0208535874477945,-0.0309253012595309,0.562657835303569,-0.365369946513425,0.600272242649338,0.43542415787484
-0.170254248492232,0.319323548017016,0.407481490961903,-0.0440536540327614,0.0769035478286707,-0.00270660062475819,0.0108684146193751,-0.0200996510452022,-0.0309691182880491,0.562780761239801,-0.365144051060328,0.6017328361241,0.433434228786387
0.220395185233808,0.35849055640641,0.529446212267682,-0.0438002984742195,0.0802867175192375,0.00197966419355358,0.0104291448568402,-0.0193136997184626,-0.0309727529702051,0.56280290763022,-0.364697928302244,0.603278442202814,0.431628809775677
0.551938464666583,0.390510288192536,0.624776213230332,-0.0399359793498836,0.0840258209106819,0.00775240262320751,0.0100104634677197,-0.018492137026313,-0.0309240926361213,0.562732186912233,-0.364183851878621,0.604796017075337,0.430028354383332
0.815465801651751,0.406246933643445,0.691420681151766,-0.0330963071434579,0.0880037061883115,0.0143350133972819,0.00964530203525296,-0.0176319893908181,-0.0308136555560189,0.562583654744576,-0.363746807129424,0.606182618831777,0.428637987518179
1.00652079824566,0.401808607153789,0.727268766655375,-0.0239837232691369,0.0920380830607473,0.0214300869384814,0.00935990188318998,-0.0167317804445728,-0.03063483005434,0.562376431802165,-0.36350898033085,0.607355634677676,0.427449532924727
1.12337871880235,0.377982553932854,0.730281608278683,-0.0133315748090628,0.0959311380346302,0.0287194651153156,0.00917332539279898,-0.0157919343390959,-0.0303840822940711,0.562130619396503,-0.36355932544586,0.608258804505064,0.426444615818192
1.16636807027746,0.338464972755917,0.699809186382914,-0.00188018998882971,0.0995074748365237,0.0358715453907874,0.00909726656880952,-0.0148147412747401,-0.0300611272415405,0.561864897992754,-0.363948519791956,0.608864051053525,0.42559825972333
1.13841600567405,0.287811872164892,0.638084167966816,0.00964638126576185,0.102632958229577,0.0425626384646999,0.00913609752519418,-0.0138040391094096,-0.0296689563222631,0.561595243716307,-0.364688489203916,0.609169981986114,0.424882361512483
1.04641002418865,0.229853265798264,0.550716738625048,0.0205731622899094,0.105215383087843,0.0485082692998231,0.00928719524297254,-0.0127647974028225,-0.0292136017834405,0.561334757836,-0.365755307948453,0.609198389784178,0.424268389391781
0.902286790604679,0.167378052236727,0.445704636710438,0.03031929723871,0.107195638846467,0.0534920024786644,0.00954165754061564,-0.011702742293151,-0.0287036004245481,0.561094239365205,-0.367094630896813,0.608989803713294,0.423728929259212
0.722823198699872,0.10302208110412,0.331677982624204,0.0384474980600668,0.108541738681621,0.0573805418775015,0.00988549151710952,-0.0106240554055105,-0.0281492377027672,0.560882943174749,-0.368629267039041,0.608598560038983,0.42323820746285
0.527915603068504,0.0402025885742707,0.216446550110578,0.0447038429437426,0.109251961198463,0.0601227908433392,0.0103012482221286,-0.0095350869061101,-0.027561721039163,0.56070889009826,-0.370268493718838,0.608087574927943,0.422772142344092
0.337833925103356,-0.0168320048569688,0.10635032779232,0.0490352414594359,0.109362913285499,0.0617384015350176,0.0107699436441445,-0.00844201253369029,-0.0269524150772712,0.560578440013537,-0.371918377846223,0.607522877994764,0.422308519361359
0.170218842563682,-0.0637567467473227,0.00628012040210062,0.0515781561726051,0.108954068695927,0.0623031800781535,0.0112730106323047,-0.00735042762378316,-0.0263322071692054,0.560495397174171,-0.373492083318174,0.60696795110541,0.421827547436295
0.0374962109328446,-0.0969963402822518,-0.0800535298234283,0.0526193823149218,0.108144402429229,0.0619359393332107,0.0117939983247423,-0.00626493526815738,-0.0257110115721486,0.560460072517957,-0.374918982234058,0.606478234558311,0.421312728125771
-0.0546969131526222,-0.114152507995133,-0.149916721927551,0.0525360296786569,0.107082757356292,0.0607877143766197,0.0123197753847102,-0.00518879946922977,-0.0250973933035994,0.560468632659107,-0.376151509109702,0.606096413037867,0.42075181770535
-0.107605089521163,-0.114246116495516,-0.201454789930282,0.0517271705401219,0.105934863402288,0.0590324831194944,0.0128410913858041,-0.00412371136543687,-0.0244982923161188,0.560513019078515,-0.377169096066654,0.605849047570535,0.420137548873732
-0.1280231029483,-0.097934726310698,-0.233615868434743,0.0505516804526086,0.104868058356707,0.0568587561298331,0.0133524856407677,-0.00306969675664189,-0.0239188361198722,0.560581542189512,-0.377978818735502,0.605745026708134,0.419467888833108
-0.126151848937634,-0.0675550555471121,-0.246099227195355,0.049283456568013,0.104034708615868,0.0544618069538465,0.0138516613258709,-0.00202518292177902,-0.0233622333044538,0.56065999507141,-0.378612610703291,0.605776130284987,0.418745914511308
-0.113455620847119,-0.0270067019312859,-0.239516559353823,0.0480880700939232,0.103555998996925,0.0520353543232644,0.0143385189591805,-0.000987229383715057,-0.0228297474980682,0.560733079358883,-0.379121406759545,0.605919611862652,0.417979421275236
-0.101074169941447,0.018495981992573,-0.215756706597508,0.0470180720148144,0.103507544565681,0.0497606142956716,0.0148140496697242,4.80883340979754e-05,-0.0223207676549736,0.560785946999562,-0.37956713998412,0.606142316348781,0.417180297022061
-0.0988231318110179,0.0629347766004482,-0.178000653725628,0.046021236380886,0.103908797527096,0.0477934537962198,0.0152792462117027,0.00108517004456186,-0.0218329973145141,0.560805697275123,-0.380013735561564,0.606405657896715,0.416363673678627
-0.114519260053077,0.100244249349214,-0.130023880737442,0.0449571752963996,0.104718791825294,0.0462549574260683,0.0157341382700892,0.00212830799132381,-0.0213627552584027,0.560782923723668,-0.380518199598136,0.606670680575932,0.41554674534168
-0.153334013474819,0.125100216044554,-0.0752468582506106,0.0436205598035941,0.105839613320713,0.0452302300332919,0.0161770269455891,0.00318110001705385,-0.0209053293211059,0.560713498440953,-0.381122835851164,0.606902404956749,0.414747185061681
-0.217038916743233,0.133556767772575,-0.0163232248319124,0.0417713460273378,0.107126997408248,0.0447740059200432,0.0166039864747438,0.00424593307069865,-0.0204553081413392,0.560600416604173,-0.381849503224296,0.607072947896202,0.413981359149421
-0.303556277049658,0.123455249663907,0.0444250844664958,0.0391710209332074,0.10840615666388,0.0449161415203799,0.0170086983095465,0.00532359884105929,-0.0200068574041371,0.560455163499535,-0.382696580951916,0.607163337227281,0.413262650818405
-0.407695377073054,0.0946099581324173,0.104251276527981,0.0356174135374278,0.109490581871311,0.0456611496275162,0.0173826404818997,0.00641308253373524,-0.0195539709483976,0.560298140125773,-0.383638945905279,0.607164108968024,0.412600167398599
-0.523313699638363,0.0488451211873732,0.159657204399565,0.0309650190287047,0.11020195643636,0.0469823183343178,0.0177155526447303,0.0075115452252736,-0.0190907536085884,0.560158042426155,-0.384630808854342,0.607074706248784,0.411998069677887
-0.646035651317898,-0.0101739740713334,0.206677612752631,0.0251209231487574,0.11038941134039,0.0488156187222426,0.0179959823556177,0.00861450206415735,-0.0186117639233056,0.560070392658875,-0.385610795159129,0.606901760832283,0.411455614401301
-0.775583105483301,-0.0776499821557634,0.241378101798886,0.0180154802395854,0.109944390727704,0.051057523597164,0.0182116643725594,0.00971617107449782,-0.0181123982117086,0.560075607892627,-0.38650820392426,0.606656607068074,0.41096773941953
-0.916825970492387,-0.149120907633309,0.260072226384541,0.00955608573454097,0.108804635447208,0.053566401540245,0.01834952220243,0.0108099162053724,-0.0175892785860215,0.560217151344696,-0.387248872109833,0.606352719550161,0.410525801726299
-1.07816805153504,-0.222286551915018,0.25908653643827,-0.000416233500762141,0.106941697317916,0.0561638216565229,0.0183952214635989,0.011888647869198,-0.0170406274700377,0.56054027912615,-0.387758877135351,0.606004038354344,0.410117975926606
-1.2670066280242,-0.298226724499771,0.234320226431253,-0.0121394560237243,0.104333230104292,0.0586324817730344,0.0183324430159765,0.012945022506309,-0.0164666459528899,0.561091422793549,-0.387965088689848,0.605625095638648,0.40972887225343
-1.48466850175538,-0.380949101275304,0.181162444868175,-0.0258951807977882,0.100931450143866,0.0607115214316954,0.0181422698318689,0.0139713459075498,-0.0158699259368663,0.561917598523151,-0.387793167771963,0.605233271194756,0.409338196285486
-1.72389520134105,-0.474917397948856,0.0952666221400797,-0.0419353484384364,0.0966462168161951,0.0620952930689005,0.0178031171856878,0.0149592342423501,-0.0152558918643633,0.563064898411762,-0.387165025462238,0.604852470752026,0.408918881760853
-1.96982453103971,-0.58165284309636,-0.0257928519931333,-0.0604012962255062,0.0913574647794187,0.0624442882217991,0.0172914339623681,0.0158992526503282,-0.0146331939579098,0.564575334430999,-0.385998213508777,0.604516509428947,0.408435871034855
-2.20286828970769,-0.697400415766582,-0.180424226213984,-0.0812621094544092,0.0849562976535537,0.0614148291329274,0.0165831169339685,0.0167808214624931,-0.0140138983711362,0.566481930147842,-0.384209012749382,0.604270157324557,0.407847072203634
-2.40055906237237,-0.81318625322034,-0.361343741635465,-0.104276595339976,0.0773974634770687,0.058707615595844,0.0156554234099966,0.0175925902681462,-0.0134132861474923,0.56880249969901,-0.381719575015768,0.604166479559147,0.407107783471461
-2.53672250014185,-0.917025983198798,-0.555262368531841,-0.128960352277713,0.0687405014634227,0.0541262113471713,0.0144892386719081,0.0183232800928486,-0.0128491170127772,0.571532873578244,-0.378468247903974,0.604260356205094,0.406179002001314
-2.57997133459686,-0.996960837940539,-0.744435571434104,-0.154541170576572,0.0591646665261757,0.0476293479495055,0.0130717310576367,0.0189628059327966,-0.0123403392162938,0.574640649337231,-0.374421654952178,0.604599222813308,0.405038674950555
-2.49571376575559,-1.04353796482771,-0.909994154878572,-0.1799169452035,0.0489562716807841,0.0393588256201059,0.0113994404787363,0.0195034106238314,-0.0119053983484458,0.578060800928724,-0.369587085130055,0.605212786156912,0.403693671497211
-2.25450992439887,-1.05121249824886,-1.03630156922897,-0.203665412779439,0.0384766185338509,0.0296289733017321,0.00948152868882164,0.0199405750749046,-0.0115604593538366,0.581694526271469,-0.364023809481429,0.606103656336974,0.402189634390783
-1.84603540682001,-1.01940596506821,-1.11499756207927,-0.224165488560699,0.0281176253857152,0.0188741039473547,0.00734237418212095,0.0202735462945024,-0.0113179439675912,0.585412610580329,-0.357851333833805,0.607240794326261,0.400615920743176
-1.29293668691375,-0.954121459261373,-1.14700853924719,-0.239857698154534,0.0182440874325169,0.00756569974288632,0.00502225824854479,0.0205053548585936,-0.01118574494914,0.589064348073961,-0.351251145534575,0.608557636769029,0.399103281518635
-0.655133752599088,-0.869770777605718,-1.14134047582409,-0.249595399477264,0.00911872541663113,-0.00387441903030621,0.0025749927603858,0.0206421689228393,-0.011167288545577,0.592492350089225,-0.344457714206076,0.609956239995514,0.397812874980444
-0.0183520355954685,-0.78959490276746,-1.11142828546233,-0.252960177543403,0.000815996183214906,-0.0151366365345745,6.22148752824692e-05,0.0206918425308386,-0.0112623438234015,0.595551876145222,-0.337736103243527,0.611317713729573,0.396916792623129
0.529127403607058,-0.742999524156552,-1.07121817315923,-0.250403649828511,-0.00685287678295549,-0.0260482425255184,-0.0024546042615771,0.0206616581278399,-0.0114682682187019,0.598131056720189,-0.331347613420045,0.612518121113935,0.396572249879749
0.919920826686012,-0.759422351152422,-1.03238390662733,-0.243155757802211,-0.0143708869910507,-0.0365646266222874,-0.00492240129973071,0.0205555393089698,-0.0117813325644409,0.600167192735053,-0.325509806945294,0.613447748978505,0.396893645225228
1.12197656585998,-0.859664285871042,-1.00244751416128,-0.232943619964647,-0.0224722210077184,-0.0467371574240666,-0.00730289818856501,0.020371323768976,-0.0121978414846727,0.601655186206885,-0.320360774649632,0.614030075684752,0.397928482432238
1.14194800575764,-1.04661082357349,-0.983280224719893,-0.221621346231725,-0.0320094973864914,-0.0566641698163086,-0.00957572301954687,0.0200989151770049,-0.0127148481208746,0.602646123259244,-0.315938181587016,0.614235647416453,0.399643947757231
1.01935789380602,-1.29914984800783,-0.97050761173461,-0.210812165859073,-0.0437442015759483,-0.0664314826964172,-0.0117378905800009,0.0197201466821927,-0.0133303263834382,0.603235986864928,-0.312180857972497,0.614086398517598,0.401929535145575
0.81426881813872,-1.57437309770183,-0.954797369640615,-0.201641381424515,-0.0581177171360469,-0.0760563813011295,-0.0138001583164188,0.0192108370886328,-0.014042765703426,0.603546529282274,-0.308953899942896,0.613648383735932,0.404616776517824
0.592357833726251,-1.81962619865999,-0.925129670028523,-0.194605597290357,-0.0750936144494063,-0.0854543901973113,-0.0157813932099932,0.0185447804307055,-0.0148503195609182,0.603702536216963,-0.306089387126674,0.613014881897522,0.407511091169052
0.411768085112735,-1.98909208223172,-0.872721125384921,-0.189582316821328,-0.0941431066854153,-0.0944420178722147,-0.0177023327805516,0.0176985968250314,-0.0157498016012658,0.603810823851023,-0.303429515319965,0.612285144893963,0.410426509347556
0.314313037550679,-2.05704301042228,-0.793631083387232,-0.185949260333176,-0.114379682980236,-0.102772152613912,-0.0195799906663241,0.0166559828767031,-0.0167358724536964,0.603945444198956,-0.300860129596834,0.611544897286648,0.413214135107895
0.32168194280184,-2.02314803025354,-0.689066536679908,-0.18276663455658,-0.134786539015165,-0.110184014412083,-0.0214235701407729,0.0154101517667261,-0.0178006532888264,0.604141535534572,-0.298327538496333,0.610853391907653,0.415778568966179
0.436270265716152,-1.90947882017642,-0.563827509883452,-0.178974222639156,-0.154455574098865,-0.116446858342736,-0.0232322744267516,0.013963941201156,-0.0189338076526005,0.604398052820216,-0.295836898600427,0.610239517326996,0.418080440425199
0.645160036532991,-1.75180588248632,-0.423915077966533,-0.173564420253076,-0.172767898443729,-0.121383944979822,-0.0249949676412127,0.012327823838443,-0.0201229616692133,0.604687650517213,-0.293435150937167,0.609706911353154,0.420126337849284
0.925447608022743,-1.5885856734011,-0.274347760090685,-0.165708731155464,-0.189475757054717,-0.124873632867945,-0.0266913333982554,0.0105166055609508,-0.0213542495584521,0.604970447235654,-0.291184850894738,0.60924578856455,0.421949890031105
1.24967580953754,-1.45058987988391,-0.118096652350303,-0.154830463192828,-0.204677535652692,-0.126834228627986,-0.0282940293699969,0.00854583909741373,-0.0226127888659318,0.605207791434165,-0.289137103723109,0.608847361512823,0.423589606596841
1.59033413568955,-1.35371001092774,0.0433713966478713,-0.140627762591859,-0.218704935938301,-0.127206228604334,-0.0297713204989203,0.00642892673945877,-0.0238829911520934,0.605373042621364,-0.287311463657448,0.608515809967043,0.425069536827236
1.9228100458343,-1.29590181363804,0.208254159732187,-0.123059390809405,-0.23195889589268,-0.12594647452027,-0.0310897562659266,0.00417560758030386,-0.0251487546677164,0.605457960675396,-0.285687640938906,0.608273666583804,0.426387589184123
2.22711781230703,-1.25794565805814,0.372289325979486,-0.102307100643865,-0.244734034082711,-0.123042130789548,-0.032216588723193,0.00179214293042691,-0.0263936976942655,0.605474220798634,-0.284210113706312,0.608158877880223,0.427514161719586
2.48889262034254,-1.20868676724944,0.527566967291363,-0.0787243976057829,-0.2570730970408,-0.11854122302103,-0.0331217462144412,-0.000716892725190648,-0.0276016144633184,0.605450014165919,-0.282803979355943,0.608214311643037,0.428401144629095
2.69983174672485,-1.11575171381784,0.663170840232649,-0.052778124895612,-0.268701190277686,-0.112585907681246,-0.0337792588269482,-0.00334576416178308,-0.0287572501168297,0.605422568562182,-0.281397704337741,0.608473087163554,0.42899807419926
2.85751474984967,-0.95874416826211,0.767753858595394,-0.0249887415379054,-0.279079570519636,-0.105429657884942,-0.0341680931591158,-0.00608466796576969,-0.0298473279446607,0.605428799769585,-0.279945287478448,0.608945684046107,0.429268864826915
2.96380913628156,-0.737223258674244,0.833372891713688,0.00412052876758478,-0.287565308485868,-0.0974223978312323,-0.0342724342229674,-0.00891789236079721,-0.0308615882232415,0.605497134476419,-0.278439573878421,0.609614662231699,0.429202268669889
3.02154048016429,-0.468751581095324,0.858869118950321,0.034049927724648,-0.293601083516267,-0.0889595614757484,-0.0340815819405062,-0.0118237243208079,-0.0317934980197764,0.605642798669771,-0.276912659267083,0.61043875126277,0.428813141722394
3.03112502166284,-0.180144920254012,0.850626018590448,0.0643159061086177,-0.296851466854564,-0.0804104594858807,-0.0335897527713399,-0.014775987072662,-0.0326403481245846,0.605867076209812,-0.27542552678826,0.611363415231489,0.428136239618737
2.98920407866753,0.102115729130505,0.820259819474745,0.0944202024851036,-0.297247513641732,-0.0720544039933909,-0.0327960722283713,-0.0177464819751435,-0.033402672441981,0.60615954928829,-0.274052492468049,0.612333103416792,0.427216575800411
2.88955667024051,0.358351891824743,0.780894785763556,0.123816657104478,-0.294951076368506,-0.0640470046650355,-0.0317048879304234,-0.0207074749251947,-0.0340831794852731,0.606501694821518,-0.272866141908898,0.613301166058071,0.426100272811683
2.72545485439475,0.57758074595374,0.744018010571459,0.151894365602488,-0.290277314011164,-0.0564208143811966,-0.0303263328168885,-0.023633616877093,-0.0346855185805042,0.606870454878234,-0.271926598618847,0.614235446866246,0.424828190887202
2.49242600661513,0.755765502946549,0.717870489469366,0.177986420782371,-0.283616483598212,-0.0491097455788286,-0.0286769288849642,-0.0265030858651399,-0.0352131713803044,0.607241220560077,-0.271276066978788,0.615119770145685,0.423432478576158
2.19016007925971,0.892742079552641,0.707163818048098,0.20140200208658,-0.275379846517267,-0.0419829477390775,-0.0267799867706195,-0.0292980675157173,-0.0356686348468939,0.607590416166262,-0.270937130392086,0.615952895264528,0.421934815312811
1.82299626537203,0.989704664331302,0.713670219460597,0.221470434684572,-0.265973513629397,-0.0348771512493701,-0.0246656245867637,-0.0320048343164506,-0.0360529353418361,0.607898142934805,-0.270912410198997,0.616746586746767,0.420345050586776
1.39939930802977,1.04813059783451,0.737422722388717,0.237585063426415,-0.255790238150119,-0.0276200602379597,-0.0223703470962088,-0.0346136530753482,-0.0363654213992728,0.60815106657594,-0.271183754452785,0.617523853496034,0.418659697017575
0.930781265888582,1.07034004557697,0.778088039670937,0.249238617170841,-0.245203785764612,-0.0200408801254976,-0.0199362286932225,-0.0371186231949219,-0.0366037261010901,0.608345178336074,-0.271710560948786,0.618317633821604,0.416860670691539
0.430086139192514,1.06111565989249,0.835796156137384,0.256045605071081,-0.234552408068815,-0.0119698328442921,-0.0174098075820129,-0.039517404164089,-0.036763779665939,0.608487715229673,-0.272428421592166,0.619169356244378,0.414915369456587
-0.0891384049443442,1.02909724016765,0.910965018632314,0.257752994617155,-0.224107244400064,-0.00323440066827975,-0.0148408145835717,-0.0418107024264334,-0.0368398008335019,0.608597570388401,-0.273250133173294,0.620126309683407,0.412779265560363
-0.612692014360873,0.986870251973221,1.00338500470862,0.254246493395463,-0.21403330777091,0.00633897575058878,-0.0122808171435086,-0.0440014051872883,-0.0368242779580903,0.608703838632285,-0.274070776116919,0.621236972447231,0.410401596704483
-1.12486311340248,0.949674009911959,1.11105437181378,0.245561368631481,-0.204356487293035,0.0169127989353646,-0.00978177783337391,-0.046093354162608,-0.0367080190846606,0.608842514296078,-0.274777273701929,0.622544301647788,0.407733779724507
-1.60780458276559,0.933326527929326,1.22915100704856,0.231900681025474,-0.194947385435379,0.0286154521318401,-0.00739446758508914,-0.0480898735262501,-0.0364803778293245,0.609051661477152,-0.275261296161212,0.624078044226685,0.404739282998037
-2.04217580317703,0.951720375817027,1.34966261181699,0.213653429970595,-0.185528051748197,0.0415111465283317,-0.00516669703010879,-0.0499922507121679,-0.0361297448360237,0.609365669336319,-0.275433255842908,0.625847828534422,0.401403161582995
-2.40916484982658,1.0136739213348,1.46214204980338,0.191399377580411,-0.175706981093988,0.0555717961385974,-0.00314143299235376,-0.0517984258763789,-0.035644330122689,0.609809577972513,-0.275234741066424,0.627838919044245,0.397739120098133
-2.69382216409808,1.11978224674365,1.55564071649648,0.165887093385622,-0.165045601085146,0.0706623362722606,-0.00135500063752359,-0.0535021887872745,-0.0350131594606347,0.610394802636015,-0.274646667025038,0.630012206427691,0.393791839629887
-2.88943584078232,1.2615455549188,1.62126190074596,0.137973454236054,-0.153144862908385,0.0865484756606367,0.000164302100584784,-0.0550931411072422,-0.0342271054009703,0.611117512605875,-0.2736908663644,0.632308919508021,0.389633322196282
-3.00120551949078,1.42416798580282,1.65423342060738,0.108522898309522,-0.139722196036327,0.102927578569567,0.00139678386331266,-0.0565574764019657,-0.0332797251298192,0.611960297538926,-0.272424713792275,0.634658495515389,0.385354335153257
-3.04670941136766,1.59180343813128,1.65428598398737,0.078285974530064,-0.124648239748207,0.119471801894705,0.0023308282275106,-0.0578793285808884,-0.0321677282274979,0.612896804929569,-0.270930935256996,0.636986489993904,0.381053994065332
-3.05193119297693,1.75241808102105,1.62409464003517,0.0477954223831751,-0.107933032983995,0.135865331316981,0.00296123521207679,-0.0590422349445494,-0.0308910425614394,0.613898076642065,-0.269306066587458,0.639219716586936,0.376830927500494
-3.04358256385819,1.90000042798695,1.56712515717687,0.0173205044738334,-0.0896768412705057,0.151823056605205,0.00328681484636183,-0.0600302843158219,-0.0294526006218285,0.614938814438118,-0.267650605226452,0.641287370781111,0.37277864222083
-3.03995357158281,2.0342609798207,1.48614309350976,-0.0130945253285376,-0.0700114350630178,0.167091024160802,0.00330794474208831,-0.0608287256974896,-0.0278580302179985,0.616001888870643,-0.266062726836861,0.643118495818497,0.368986312255736
-3.04298621274734,2.15824577776043,1.38225090628594,-0.0435065733753544,-0.0490548021066624,0.181434620461945,0.00302493924856885,-0.061424056883338,-0.0261154019948847,0.617079801204569,-0.264636277982427,0.644637406333268,0.36554448932634
-3.03438182182348,2.27331102427535,1.25439128488344,-0.0738907626733745,-0.0269029189280339,0.194619457719955,0.00243795256832521,-0.0618038454885114,-0.0242351316039752,0.618172524065309,-0.263461901812725,0.645760042269338,0.362552788697383
-2.97861539295297,2.37332219206332,1.1002216580371,-0.103953097872423,-0.00367565367789086,0.206394148736722,0.00154873326559622,-0.0619567383515411,-0.0222300635716919,0.619282356369241,-0.262627544726984,0.646395049588666,0.360124389215314
-2.83342816114608,2.44169524155617,0.918335106087399,-0.133010664768084,0.0203935326586562,0.216488558859508,0.000363914452393688,-0.0618731489566372,-0.0201156500337107,0.620407847704012,-0.262213856010639,0.646451783482582,0.358382599822447
-2.56447564115682,2.45315889423615,0.709976273664656,-0.159997532904765,0.0448619025060675,0.224631742060432,-0.00110112653597055,-0.0615468717808136,-0.017910048529111,0.62153953539947,-0.262282618250058,0.645854043781724,0.357447881837479
-2.15915822734145,2.38064217238888,0.478855341233843,-0.183613051372422,0.0690250070076423,0.230577526437089,-0.00281917945735649,-0.0609774372332451,-0.0156340021866234,0.622659418701928,-0.262860775293549,0.644555695237356,0.357417706403783
-1.63503889785016,2.20586070045344,0.229806633548019,-0.202581386123546,0.0919516205403036,0.234122462613162,-0.00475015164483633,-0.0601725540955053,-0.0133105022413721,0.623744202505168,-0.263926571450101,0.642553232714395,0.358345193705828
-1.03928607507029,1.92893895306886,-0.0319431769856556,-0.215950360113314,0.112619717976365,0.235113406198138,-0.00684281037602062,-0.059149697402922,-0.0109643228973156,0.624770751428223,-0.265404881305911,0.639890982691952,0.3602239406374
-0.438356563969226,1.57166497130937,-0.300252092234601,-0.223335922433678,0.130116836766706,0.2334540561542,-0.00903924178875559,-0.0579360146292066,-0.00862148558555395,0.625721761676969,-0.267174963072577,0.636657023304073,0.362984367085738
0.098544410882048,1.17268109844615,-0.56739889532865,-0.22503233232428,0.143832666283933,0.229117427518548,-0.0112810830625454,-0.0565662671139535,-0.00630862816719021,0.626589967203809,-0.269088632273472,0.632971042570978,0.366502360493531
0.515945578399658,0.77769120833817,-0.824512887062605,-0.221957231503037,0.153578626986304,0.222159494908755,-0.013516030881682,-0.0550792106476023,-0.0040522435550537,0.627379738371207,-0.270993547782601,0.628967630864428,0.370616891501539
0.783422197716129,0.429217386684716,-1.06315899888029,-0.215457741747624,0.159607269129868,0.212722761781205,-0.0157031057479353,-0.0535132811670214,-0.0018778322716039,0.628105653540111,-0.272755953885408,0.624778863448594,0.375151768486961
0.899857282777707,0.158604741870999,-1.27736036248186,-0.207038693470321,0.162540478941096,0.201021791276558,-0.017815587924025,-0.0519025424266666,0.000190890493684914,0.628788243254158,-0.274278774917643,0.620519273414585,0.379937271264695
0.891191336507946,-0.0186903082643641,-1.46476169842236,-0.198080799499059,0.163234150277579,0.187312807274201,-0.0198411853888719,-0.0502736692805732,0.00213256348643871,0.629447627026369,-0.275512486982888,0.616275636117329,0.384828396399693
0.803384597516276,-0.104095070206104,-1.62566083051628,-0.189605268954104,0.162614322553677,0.171862320931671,-0.0217796157311377,-0.0486444269164169,0.00392843912746806,0.630096459237193,-0.276457217739179,0.612103089998032,0.389717418178256
0.692723577305908,-0.113435071181126,-1.76044328774359,-0.182122077205159,0.16152077101519,0.154933426642536,-0.023638252461934,-0.0470237514485726,0.0055624178653391,0.630734046798447,-0.277155994014115,0.608027606636689,0.394539664367174
0.615280561780366,-0.0718678933854328,-1.86761844611213,-0.175579405634893,0.160588355360807,0.136794744275421,-0.0254267598761343,-0.0454132058166926,0.00702105871992888,0.631343174924784,-0.27768111673447,0.60405322648821,0.39927270436905
0.616607243093032,-0.00773946198524741,-1.94393295449925,-0.169417315735692,0.160184417752403,0.117738613574528,-0.0271517434829872,-0.0438093419511266,0.00829372550917862,0.631890283264326,-0.278117250499351,0.600171534177487,0.403930185123435
0.722864467107772,0.0528728750908487,-1.98615638221098,-0.162717306309854,0.160404183986381,0.0980897931931406,-0.0288124165932149,-0.0422063989424326,0.00937286754301697,0.63232875946755,-0.278545037521996,0.596370876424555,0.40855205271141
0.935791053733156,0.0897605434765563,-1.99302617934926,-0.154421377830816,0.161111450247668,0.0781955066875032,-0.0303981100139183,-0.0405988207712624,0.0102542940424202,0.632604650080897,-0.279027878894312,0.592643627839099,0.413192848289367
1.23381181343415,0.090283022762125,-1.96608177678606,-0.143570712620145,0.162005767247311,0.0584015932089905,-0.0318880704661731,-0.0389832346837875,0.0109372795419027,0.632663912810196,-0.279603015745526,0.588990786226808,0.417909536566978
1.57906935353331,0.0499057684267597,-1.90925541451817,-0.129503655910474,0.162700810371705,0.0390265335546332,-0.0332534423088262,-0.0373597017956924,0.0114244201757208,0.632460130084086,-0.280277336760867,0.585423731157597,0.422750343997227
1.92747596587875,-0.0282254533083371,-1.8278638696618,-0.11196827843858,0.162803311115747,0.0203425634358972,-0.0344608019805714,-0.0357321811882552,0.0117212656606734,0.631961410869634,-0.281028142949685,0.581963265893357,0.427746087290872
2.23812478354854,-0.13501428349111,-1.72766544320037,-0.0911376238166092,0.161981211600199,0.00256654317375027,-0.0354763314918474,-0.0341082585746754,0.0118358111937217,0.631155324375297,-0.281808367254879,0.578636512535309,0.432905055432282
2.47989164854708,-0.258118820643113,-1.61443683465296,-0.0675448907812971,0.160009645247978,-0.0141423419133525,-0.0362697440648369,-0.0324983042904346,0.0117779322000237,0.630051141735603,-0.282554753461869,0.575472603309349,0.438211881324692
2.63500021289623,-0.384965419962716,-1.49398994587908,-0.0419677805992466,0.156788323213398,-0.0296828495138488,-0.0368173074217396,-0.0309143144481277,0.0115588062428876,0.628679234684414,-0.283197064782079,0.572498221836115,0.443630058009961
2.69965628285396,-0.505326625517803,-1.37208157701269,-0.0152918472456616,0.152330962154445,-0.0440115808261438,-0.0371036055609642,-0.0293687180212885,0.0111903340911877,0.627088047216347,-0.283666515076815,0.569734050970474,0.449106891983787
2.68182485148651,-0.612629468757831,-1.2538839460204,0.0116182093008748,0.146735280851517,-0.0571397821391454,-0.0371219737506881,-0.0278733868062587,0.0106845772763612,0.625339367610519,-0.283902132175738,0.567192974247898,0.454579349098009
2.59713873336027,-0.703870011248364,-1.14309050291298,0.0380156780999427,0.140146882619935,-0.0691230280816484,-0.036873804313684,-0.0264389759889014,0.0100532632252573,0.623502723980303,-0.283854479443906,0.564880319579971,0.459979578068419
2.46452518552842,-0.778606427393765,-1.0410679844575,0.0633266485692202,0.132728599595174,-0.080042194216337,-0.0363670926803382,-0.0250745985778258,0.00930743711376734,0.621649741382026,-0.28348687711171,0.562795698763906,0.465239498535922
2.30278283627608,-0.837570910577006,-0.946644349190867,0.0871658395530767,0.12464181207377,-0.0899791295824149,-0.0356146302397267,-0.0237877465194811,0.00845733049477358,0.619849056933723,-0.282774899581136,0.56093553243094,0.470294409111644
2.12846329075672,-0.881498977617491,-0.856757301316736,0.109324721063075,0.116040561801247,-0.0989945115327891,-0.034632177436646,-0.022584334650106,0.00751246228919756,0.618162064957169,-0.28170523229242,0.559295357371092,0.475085809901859
1.95473462963882,-0.910572703363867,-0.767691303020568,0.129743361539886,0.10707430256479,-0.107115128252312,-0.0334368370236312,-0.0214687603282759,0.00648191409027206,0.616639661068497,-0.28027477522741,0.557871256654486,0.479563593037773
1.79095094630186,-0.924335843133253,-0.676518221559981,0.148474440294424,0.0978938590007543,-0.114334549573051,-0.0320457480144596,-0.0204439195204481,0.00537466570114525,0.615320064194936,-0.278490332636631,0.556660196732719,0.483687687046682
1.64259628834674,-0.921807696667539,-0.582268064009795,0.165644827342501,0.0886572404702,-0.120626854698736,-0.030475151676275,-0.0195111640230934,0.00419985867978632,0.614227609972482,-0.276368832225578,0.555659573542178,0.487429123106824
1.51099069944679,-0.901959705613523,-0.486182740160568,0.181415413156302,0.0795325026272444,-0.125967482417424,-0.028739850473781,-0.0186702153076061,0.00296688699420552,0.613372344448556,-0.273938035805998,0.554866381862769,0.490770432975494
1.39263499994065,-0.864685470330827,-0.390751731075623,0.195936192528074,0.0706933759159723,-0.130350528471441,-0.0268530924453591,-0.0179190859148901,0.0016852969397612,0.612750396566148,-0.271237671183904,0.554276219931086,0.493705326341196
1.2787274541259,-0.811735056716341,-0.298191086964986,0.20929565567324,0.0623053724491861,-0.13379361625948,-0.0248269332043525,-0.0172540921730643,0.000364576216106595,0.612345357239804,-0.268320567980821,0.553882339288523,0.496237433583542
1.15537701111409,-0.746887198283899,-0.209552769916675,0.221468828874274,0.0545063603426346,-0.136330709241724,-0.0226731107816149,-0.0166700335091052,-0.000986045411399427,0.612130982138752,-0.265253026368726,0.553675126180206,0.498377715550577
1.00509522624807,-0.675349861666942,-0.124886721570918,0.232273840935919,0.04738927421133,-0.138001280396998,-0.020404397432564,-0.0161605553363353,-0.00235770535959304,0.612075257332458,-0.262113485695982,0.55364245131088,0.500140416367431
0.810269984425946,-0.603063144088337,-0.0438165712431346,0.241353317864123,0.0409913083510033,-0.138843170558905,-0.0180362616385638,-0.0157186524235237,-0.00374192761437256,0.61214535408524,-0.258988743470318,0.553771231671806,0.50153795389802
0.558289815334104,-0.536321966861563,0.0341996150664275,0.248198767737758,0.0352884819647035,-0.138889629037625,-0.0155885012105544,-0.0153372534719451,-0.0051305916123552,0.61231261726956,-0.255967558746359,0.554050350411674,0.502575443899353
0.246347001134471,-0.481628342106637,0.110267423320447,0.252224602694934,0.0301928295883121,-0.138165667543526,-0.0130863843583909,-0.0150098469141801,-0.00651586809526096,0.612556661532572,-0.253132170355712,0.554474673744539,0.503245742077331
-0.116282992031379,-0.445299074433721,0.186955319563015,0.252877573615284,0.02555229167406,-0.136677927526945,-0.0105608734768398,-0.0147311213078682,-0.00789008607061332,0.61286790083335,-0.250548825748512,0.5550493902083,0.50352596405107
-0.509542540264334,-0.432064487855782,0.26859397554628,0.249751096828639,0.0211595730310621,-0.134398554749235,-0.00804773012462019,-0.0144975619843426,-0.00924546848199422,0.613248297130886,-0.248258987941601,0.555793485058168,0.503376204184481
-0.907247381530816,-0.442778207027695,0.359964937799802,0.242669798094498,0.0167794587250944,-0.131254133880341,-0.00558562565000451,-0.0143078668255618,-0.0105737319251421,0.613710417266866,-0.246273601141146,0.556740847197977,0.502740953355085
-1.28367382198177,-0.472476438622278,0.464136937209205,0.231717842951769,0.0121972846652942,-0.127131998203132,-0.00321368744477318,-0.0141629831086099,-0.0118656625855595,0.614274978896582,-0.24457295033217,0.557937599279297,0.501553544078672
-1.62007585327847,-0.509778547705127,0.581027572331314,0.217201745450301,0.00728010890210686,-0.121904549353265,-0.000969089502762826,-0.0140655961407729,-0.0131108453233414,0.614967306703897,-0.243113483012754,0.559435035769745,0.499743420983275
-1.90951908756379,-0.538255288179886,0.707289006994226,0.199556421620924,0.00203403889113146,-0.115461340154474,0.0011147013325933,-0.0140190254018067,-0.0142976747708801,0.615813457744266,-0.241840711795133,0.561278821949582,0.497245351321019
-2.15838543849993,-0.540073797732906,0.837265358943324,0.17921954986544,-0.00336350736998284,-0.107736942022622,0.00300858119002512,-0.0140256727442009,-0.0154136661817656,0.616836853383479,-0.240704629876637,0.563496732265601,0.494009119541238
-2.38239892969213,-0.500960924273428,0.96457536197497,0.156518278899313,-0.00857458181156485,-0.0987261121158667,0.00468727033384888,-0.0140853631901087,-0.016445981452458,0.618056033859163,-0.239672325173949,0.566088424368915,0.490007970702021
-2.59675902870189,-0.414681279646625,1.08387772930722,0.131625139982177,-0.0131586936627155,-0.0884822203572919,0.00612798742825633,-0.0141940295674801,-0.0173820231148238,0.619483670842152,-0.238733270312298,0.569020404164697,0.485244460916529
-2.80406879144748,-0.28530695469901,1.19222844348691,0.104623651756264,-0.016664535665994,-0.0771000631911574,0.00730923138694854,-0.0143431457141236,-0.0182099345325661,0.62112630867836,-0.237895630267139,0.572227794634933,0.479753195731551
-2.98638932221073,-0.125821553960427,1.28904981384812,0.0756740120628071,-0.0187260790408415,-0.0646920456023184,0.0082107197060439,-0.0145200987876578,-0.0189188950765335,0.622983888327265,-0.23717539478466,0.575622530079575,0.473600686082877
-3.10666092526633,0.0467400338578503,1.37444139374675,0.0452114117002558,-0.0191273874729047,-0.0513729632621802,0.00881514682485921,-0.0147093661202265,-0.019499220120856,0.625048297658504,-0.236583265461412,0.579105423935675,0.466883167469233
-3.12058106570528,0.21727593794217,1.44723784645446,0.0140778526202318,-0.0178132084454549,-0.0372629407590102,0.00911159314646165,-0.0148940690998183,-0.0199423996409619,0.627300900556615,-0.236115359896902,0.58257824520744,0.459723509506134
-2.99454879883742,0.377273616574297,1.50413420535256,-0.0164951458276478,-0.0148463615044229,-0.0225044541978113,0.00909950668042457,-0.0150573669495677,-0.020241236615746,0.629709890852874,-0.235751899208975,0.585952224405512,0.452268157286863
-2.72147611958023,0.526200197829531,1.53959995451706,-0.045072619544902,-0.0103348932639541,-0.00728415709629936,0.00879166785356182,-0.0151832732234096,-0.0203901796722166,0.63222887232258,-0.235464315419634,0.589151016590285,0.444684482320123
-2.32707398100107,0.668231896325251,1.54600305173499,-0.0703127191729746,-0.00436863362473056,0.00814548423712476,0.00821474115997244,-0.015256790857853,-0.0203858730365124,0.634797928633062,-0.235227296492427,0.592108873041289,0.437157627468414
-1.864243491382,0.805572000640164,1.51441364070017,-0.0912666556600559,0.00299448502854618,0.0234491940014645,0.00740684428580729,-0.0152636616008339,-0.0202278996453195,0.637347768997341,-0.235029676076387,0.594767362608868,0.429884469471546
-1.39876817514934,0.932270280032766,1.43692019298734,-0.107579063117879,0.0116777956003605,0.0382074894720659,0.00641261569191761,-0.0151903001976894,-0.0199196162279518,0.639806621976172,-0.234878082099562,0.597074475853603,0.42306245792887
-0.992256725444556,1.0322146581016,1.30993337174799,-0.119531536746014,0.021494319459482,0.0519433835979064,0.00527706269259815,-0.0150244396223902,-0.019468861862602,0.642108778469278,-0.234789870989907,0.598988221185108,0.416873054987647
-0.687678052037658,1.08264969132224,1.13649127463592,-0.127928559758591,0.0320627403750509,0.0641771331319898,0.00403976221007512,-0.0147566543232175,-0.0188882592789525,0.644203301340125,-0.234776178177688,0.600484224492045,0.411461965239741
-0.500776722768423,1.06160940286626,0.926292291372806,-0.133868182757788,0.042778135014443,0.0744926772641973,0.00273077849749323,-0.0143824499462701,-0.0181949102269716,0.64606115640527,-0.234820612028628,0.601564761534758,0.40692026249674
-0.418940687587309,0.956470263472694,0.693897071813457,-0.138464118934732,0.0528626325145875,0.0825952503822925,0.00136911698903063,-0.0139042461086249,-0.0174094705887391,0.647678888159103,-0.234862148413181,0.602265789847087,0.403271307503519
-0.407227625813567,0.771002425675462,0.456175339220155,-0.142592309626903,0.0614940951287779,0.0883472387396244,-3.61651537775431e-05,-0.0133324624704081,-0.0165547581431295,0.649077467121885,-0.234790181711298,0.602658728672015,0.400467812691664
-0.418786379082929,0.527688997767124,0.229806072087692,-0.146719728776551,0.0679816514144405,0.0917787720983275,-0.00148272534579481,-0.012685083737692,-0.0156541280889398,0.650296159300368,-0.23445523177617,0.602844976673012,0.398401284626554
-0.405772927435902,0.263359039063886,0.0290279703693606,-0.150839874434311,0.0719309907670452,0.0930745686127766,-0.00297052336184912,-0.0119855205267845,-0.0147298613853843,0.651382753198174,-0.233692864834771,0.602943416816328,0.39692239780483
-0.328201398589236,0.0196822051290326,-0.136452478640286,-0.154507095189603,0.0733402961564595,0.0925390723735859,-0.0044972582099687,-0.011259164092167,-0.0138017931804524,0.652382486421926,-0.232354369119324,0.60307344100811,0.39586735570358
-0.160214124623005,-0.16766347197494,-0.262952287877342,-0.15694652193083,0.0725944889906796,0.0905436748431616,-0.00605452629557086,-0.0105294901664313,-0.0128863794443687,0.653328169605259,-0.230336689366777,0.603337349026167,0.395083985504187
0.106076278866137,-0.277429300109683,-0.352670802039565,-0.157214560284781,0.0703631242987062,0.0874671856957409,-0.00762533170664891,-0.0098147020999844,-0.0119963251416742,0.654233649301912,-0.227604784410751,0.603806133114554,0.394452212375198
0.459830180212326,-0.306626565882716,-0.411499830311925,-0.154382377114554,0.0674369441371938,0.0836479588361473,-0.00918331639364559,-0.0091257017578049,-0.0111407494190148,0.65509206255178,-0.224201404026291,0.604511738749499,0.393895516258249
0.874809337922903,-0.269081911505071,-0.445873832003686,-0.147706528649044,0.0645525009187046,0.0793627168267331,-0.0106937609224636,-0.00846575453252541,-0.0103256960407004,0.655879209810227,-0.220242561367109,0.605447022952957,0.393382229769686
1.31629738572094,-0.189565097885399,-0.460393968378741,-0.136748344155991,0.0622533650402019,0.0748330041269848,-0.0121160352864888,-0.00783172520273088,-0.00955471743593176,0.656560989817721,-0.215900828310125,0.606572374982178,0.392917870417034
1.74923492872458,-0.0961520153647399,-0.457349077374628,-0.121418031708929,0.0608188786424008,0.0702459152003819,-0.0134068671658134,-0.00721636398431786,-0.00882932283929493,0.657102639595704,-0.211381317437403,0.607826461301622,0.392531594417996
2.14476795767754,-0.0138457479825268,-0.437997469511768,-0.101945366402085,0.0602629889941142,0.0657708087681137,-0.0145236841563684,-0.00661095464613529,-0.00814923921945245,0.657477059638484,-0.206895980060766,0.609138473929364,0.392260486236931
2.48344666745066,0.0392335868622055,-0.40417103769357,-0.0788016424016096,0.0603840273569622,0.0615615925342509,-0.0154274192003869,-0.00600771956437991,-0.00751257721294063,0.657670084799745,-0.202641032816108,0.610439853677008,0.392134997700421
2.7550150157456,0.0531796096146795,-0.358636061663206,-0.0526066831107943,0.0608401925077963,0.0577491833396309,-0.0160844608279489,-0.00540159846505611,-0.00691602333357122,0.657681946141064,-0.198780596110774,0.611673848382894,0.392168121517301
2.95616175345806,0.0257033293761992,-0.304098451898926,-0.0240481483899419,0.0612287063712004,0.0544371370739841,-0.0164677349854526,-0.00479125397066113,-0.00635509173150314,0.657525673429671,-0.195437431589898,0.612801724621275,0.392349646891129
3.08790150223389,-0.0394542454653607,-0.242196540695655,0.0061748187633518,0.0611540509592042,0.051707288413175,-0.0165571016335855,-0.00417934018400911,-0.00582436960406735,0.657223922573102,-0.192689817116679,0.613805342808732,0.392645324837341
3.1534727609985,-0.134282653436151,-0.17358399464482,0.0373843409543478,0.0602794656331463,0.0496300120386365,-0.016339305834997,-0.00357217260104735,-0.00531768310180829,0.656805442552967,-0.190572922266042,0.614686662615296,0.392999845718357
3.15672793003161,-0.247909816083282,-0.0987870743551305,0.0689379952843323,0.0583626024539988,0.0482697829958006,-0.0158076941538036,-0.00297896226061163,-0.0048281841266361,0.65630181261531,-0.189083287834182,0.615465079164149,0.393342315736742
3.10088839721493,-0.367212777801168,-0.0187345131621725,0.100228727795399,0.0552810886530263,0.047683801360378,-0.014961860538405,-0.0024107438050765,-0.00434841620485521,0.655744695223559,-0.188185411618106,0.616173296947007,0.393593208363331
2.9880638037523,-0.476984068497538,0.0655373858566469,0.130676139675069,0.0510542035899824,0.0479194420260142,-0.0138073362010527,-0.00187906734386146,-0.00387039998792325,0.655163655486145,-0.187819901616148,0.616851989598561,0.393672315530607
2.81987965825377,-0.561150596785953,0.153440624735042,0.159718507859933,0.0458576294320146,0.0490159583811365,-0.0123553629633776,-0.00139450817875147,-0.0033857229858875,0.654584538457418,-0.187913026709136,0.617543352535111,0.393507286012846
2.59877102154976,-0.605881851861045,0.244940598076429,0.186814412133785,0.0400165663572293,0.0510094907973577,-0.010622698363409,-0.000965137199805255,-0.00288559573999503,0.654028392233206,-0.188387021092915,0.618284259558864,0.393041685853209
2.3291163032404,-0.603194291247567,0.340116468449796,0.21145649963257,0.0339652848101359,0.0539364024321527,-0.00863134380457727,-0.000595227943968429,-0.00236086627384748,0.653510900244894,-0.189169410293752,0.619100520947768,0.39224097495344
2.01756811820087,-0.552825878955519,0.438420710417169,0.23319257261461,0.0281792831275701,0.0578307146286514,-0.00640809844334137,-0.000284505104279899,-0.00180203068854345,0.653042239520472,-0.190199407658609,0.620003727748433,0.391095124370591
1.67232380628228,-0.461491652770755,0.537863949740807,0.25164468311186,0.0231017946373884,0.0627137642316051,-0.00398391216470902,-2.80997154551063e-05,-0.00119930829424217,0.652627260898849,-0.191430676716846,0.620991214840647,0.389617588712489
1.30152390278723,-0.340411587571055,0.634548228368474,0.266516572532041,0.019086377604129,0.0685774514243154,-0.00139310588648951,0.000182841145752481,-0.00054285221596257,0.652265961741587,-0.192831325739636,0.622048514551088,0.387841256845635
0.911186796049424,-0.202686362486975,0.723197172734854,0.277582776901059,0.0163649870222885,0.0753678047319959,0.00132739086067599,0.000360097968884568,0.000176874064818986,0.651954321177944,-0.194382481754844,0.623153082966111,0.385812453238701
0.503639815203027,-0.0613216084495028,0.798819675601402,0.284659560832155,0.0150390463360558,0.082979515275841,0.00413860254934206,0.00051711813567629,0.00096861066485817,0.651685612288786,-0.19607604907771,0.624278201444576,0.383584114523779
0.077893919515658,0.0723332762056031,0.858756109530704,0.287569880380582,0.015088203843286,0.0912690205036654,0.00699974975540574,0.000667754386572999,0.0018398533437557,0.651452299392116,-0.197911286793877,0.625396386012623,0.381209108677464
-0.367656476827742,0.189928253468352,0.903965117256765,0.286123718468856,0.0163936106601054,0.100084252939767,0.00986821774965293,0.000825163459089956,0.00279661971097286,0.65124842910869,-0.19988965651871,0.626482066776739,0.378734509660054
-0.831530080953421,0.286751657322335,0.938551762101055,0.280130436554784,0.0187711093825085,0.10929846363872,0.0126994885247711,0.00100098705930303,0.00384353329386529,0.65107201246048,-0.202008254439775,0.627513588133356,0.376197549748609
-1.30636612673677,0.361349835368318,0.967338046061181,0.269443606391167,0.0220057160144114,0.118829538981695,0.0154473587395009,0.00120487118628763,0.00498417330696736,0.650926609117422,-0.204253249937837,0.62847471874593,0.373623724260052
-1.77858429661977,0.414781964900204,0.992567022770255,0.254021505149219,0.0258804741842037,0.128630690628016,0.0180646842972028,0.0014443021372807,0.00622147445501591,0.650821381703759,-0.206595320730423,0.629355864857441,0.371027085182532
-2.23130776087726,0.450384389538492,1.01159978286332,0.233974695736567,0.0302004051248469,0.138653150958347,0.0205046653016317,0.00172470653382595,0.00755789366294773,0.650769265617133,-0.208989027311628,0.630154890195262,0.368412491311674
-2.64990173197613,0.474208233978479,1.01715522315684,0.209571299147134,0.0348174674108814,0.148798552290612,0.0227223952760503,0.0020497958965046,0.00899515217919252,0.650783560274915,-0.211377267020857,0.630876909645751,0.365779624280148
-3.02735481664154,0.495545907346578,1.00034829709894,0.18118766727888,0.0396603372859563,0.158887696194055,0.0246761901081803,0.00242218491998878,0.0105335834216159,0.65087394588939,-0.213700473649761,0.631532093737804,0.363128666870834
-3.36593252278248,0.526284211205321,0.955035290511191,0.149223881456594,0.0447635870471655,0.168666240434269,0.0263282478518577,0.00284430454165439,0.0121713531047575,0.651043251484496,-0.215908692059867,0.632130872406024,0.360467309947368
-3.67343065186227,0.578034434952803,0.881063474748533,0.114029716458204,0.0502792794464058,0.177848360562732,0.0276445158414317,0.00331951887412225,0.0139039261097425,0.651286018571149,-0.217973400240732,0.632677121912422,0.357818079769385
-3.95539108563272,0.657945304394409,0.784725552795128,0.0758882586455633,0.0564532773115915,0.186178932002614,0.0285941057169505,0.00385318165791223,0.0157240625725692,0.651589136790142,-0.219895340948259,0.633161348970597,0.355224354480461
-4.20655768828356,0.76553084541362,0.676325197074255,0.0350811656508159,0.0635647572290813,0.193485812054125,0.0291489528384324,0.0044532718306156,0.0176223862928529,0.651933999316888,-0.221705632052359,0.633556239656397,0.352753688064913
-4.40498782382334,0.891624073919111,0.566104584266341,-0.00797391103488454,0.0718446309941946,0.199699587262991,0.0292844891115121,0.00513031877173198,0.0195883132894385,0.652299106425943,-0.22345993238254,0.633815984460721,0.350497977480034
-4.51168928596399,1.01884808312376,0.460254760752032,-0.0525546457089872,0.0813910909478586,0.204833010290247,0.0289818463277927,0.00589649738144225,0.0216109762772047,0.652661930788967,-0.22522751597458,0.633879873208326,0.348570332197299
-4.47786112077193,1.12322628222314,0.358706677395424,-0.0974997468678328,0.0920955619430428,0.208929443783148,0.0282315743649086,0.00676393064589675,0.0236797885475716,0.652999354478222,-0.227077606658735,0.63368017004915,0.347098034698623
-4.25923954528423,1.17761690962107,0.255849468122427,-0.14118259932328,0.103593877070713,0.212003850812901,0.0270381626339531,0.00774237784096553,0.0257844550205519,0.653287141602678,-0.229064916614651,0.633153407036772,0.346210828471112
-3.8331637455128,1.15753613278288,0.143687311523928,-0.181641964902431,0.115263741451183,0.214003161013297,0.0254240398128245,0.00883666593357501,0.0279144900796829,0.653499862018309,-0.231216309742164,0.63225299023719,0.346024717018016
-3.21182112052667,1.04876592957097,0.0155521414391784,-0.216864238357794,0.126289350931402,0.214800984580276,0.0234315087965234,0.0100444313954879,0.0300585108076507,0.653612483318312,-0.233521604483945,0.63095991359211,0.346623671046208
-2.44577220315354,0.854397970449227,-0.131388293595514,-0.245149554101361,0.135799269599952,0.214223430121659,0.0211214398342276,0.0113548744981447,0.0322036328811604,0.653603733413705,-0.235932551626362,0.629287860379158,0.348044220653299
-1.61502376221925,0.597054959950991,-0.29557814610954,-0.265450883053391,0.143050633420403,0.212090224225297,0.0185684376484538,0.0127491240132465,0.0343352011528952,0.653460229020226,-0.238372568061218,0.627280056394948,0.350268438106952
-0.810412201533928,0.313744975531244,-0.472173820130766,-0.277575411997323,0.147598732266264,0.208253090696259,0.0158533061732003,0.0142023708416798,0.036436917727503,0.653179916417777,-0.240755432036806,0.624998299803691,0.35322789240904
-0.112119997504109,0.0459650821620261,-0.655084741318222,-0.282185422117679,0.14939138172318,0.202618424191178,0.0130545020026253,0.015687321411627,0.0384912753019402,0.652773665223808,-0.24300704779854,0.622507770730464,0.356816748612928
0.428014903825716,-0.170499601255091,-0.839082091895593,-0.280603296711237,0.148762808296164,0.195149216327273,0.0102405584084807,0.0171780923617238,0.0404801135045324,0.652264309304923,-0.245083879288384,0.619862503881234,0.360909461225411
0.795173027003407,-0.313149846762626,-1.02079384724285,-0.274484706182258,0.146338660224525,0.185851462933745,0.0074651183940132,0.0186535997043272,0.0423851169008375,0.651682723818521,-0.246983920282668,0.617095714489575,0.365378502045316
1.0087441868791,-0.375956684093168,-1.19809816539506,-0.265462469238011,0.142887226738696,0.174758629172719,0.00476538251691186,0.0200997291391433,0.0441881673613698,0.651061229527276,-0.248748547916374,0.614217081696433,0.370109189116193
1.11118507634572,-0.36809824277424,-1.36863257129631,-0.254860172047053,0.139161051272809,0.161926601791426,0.00216376931048654,0.0215099705292008,0.0458715935161906,0.650425761773225,-0.250455581638472,0.611216446383382,0.375010380814084
1.15505828261973,-0.310033571527907,-1.52841501889529,-0.243526304377392,0.135764491369748,0.147442990142632,-0.000328163071635684,0.0228845982424136,0.0474184414758608,0.649788958998597,-0.252205418284663,0.608071659451694,0.380020516187008
1.19234318282165,-0.228852358685398,-1.67131918722617,-0.231786646175351,0.133064160887131,0.131445945414189,-0.0027047278243994,0.024228741503698,0.048812886153645,0.649146082194944,-0.254102929210987,0.604758253166094,0.385108452990642
1.26609456259069,-0.153584331548714,-1.78980077507587,-0.219491806573455,0.13114607660441,0.114141971904842,-0.00496112008814343,0.0255497926911557,0.0500408257402401,0.648474716897108,-0.256237990483061,0.601259361442467,0.390268899678434
1.40370832967486,-0.110247741272877,-1.87660436578173,-0.206140141237293,0.129821015408752,0.095811572502718,-0.00708927982719717,0.0268546281512215,0.0510905934622779,0.647738208525617,-0.258667689243481,0.597574586498973,0.395513404738758
1.61292118159654,-0.116999751222654,-1.92657707941395,-0.191054342806102,0.128678877114724,0.0767972915789035,-0.00907525224741415,0.0281471276138389,0.051953637782686,0.646892101395184,-0.261403469506082,0.593726139756553,0.4008592100133
1.88234001005325,-0.1806654969713,-1.93796130959574,-0.173575385973019,0.127184650042204,0.0574762259360189,-0.0108984008913098,0.0294264452496235,0.0526250053702606,0.645892257903418,-0.264406056885563,0.589760613660451,0.406318897957629
2.18625715212188,-0.295768364237269,-1.91295155923077,-0.15322974928731,0.12479657990461,0.0382232878940502,-0.0125324265676114,0.0306863513993576,0.053103502939411,0.64470284569176,-0.267589574327722,0.585745679110547,0.411893262716664
2.49140657451252,-0.446290095278119,-1.85716563653123,-0.129838779779304,0.121080386775483,0.0193743282174041,-0.0139477692129445,0.0319157362327581,0.0533914910199682,0.643302475877365,-0.270834192263363,0.581762208545161,0.417568554299483
2.76346002998604,-0.609727330875797,-1.77815618862374,-0.103561795881977,0.115794398813163,0.00119934539379312,-0.0151147720912509,0.0331001101607013,0.0534943593880242,0.641687496178211,-0.274004583299791,0.577893254210253,0.423317885657493
2.97238419494465,-0.762607813073386,-1.68397426688636,-0.0748799238824896,0.108926822261867,-0.0161096805815935,-0.0160069806900732,0.0342237162660765,0.0534198077120852,0.639872322886723,-0.276970006040091,0.574212044814399,0.429105527519476
3.09647110213662,-0.886099127257341,-1.58245763424072,-0.0445329965222493,0.100677386728663,-0.032440213785065,-0.0166040452920969,0.0352717373110291,0.0531770582402519,0.63788741021565,-0.279621518462788,0.570771679620862,0.43489211080878
3.1247949959054,-0.970069155744541,-1.4808532965586,-0.0134240151572052,0.0913906444821032,-0.0477551421368977,-0.0168938303504942,0.0362320774670829,0.0527760814606421,0.635775814737243,-0.281882880250683,0.567599048125496,0.440638713441982
3.05773663515188,-1.01440409862986,-1.38529029892813,0.0174912938729152,0.0814623773786808,-0.0620842338121675,-0.0168734939569156,0.0370963425763869,0.0522268845808968,0.633589258837401,-0.283713703101218,0.564694464653454,0.446308578618219
2.90548208394683,-1.0273317238362,-1.30021561365263,0.0473100383432428,0.0712477974348002,-0.0755101370729075,-0.0165494872958348,0.0378598934504543,0.0515389127264714,0.631384332975224,-0.285105384763608,0.562036969518977,0.451866339248843
2.68514229612199,-1.02147258690379,-1.22799098238307,0.0752658111184209,0.0609978750495499,-0.0881495437509221,-0.0159366080485265,0.038521121812876,0.0507206143223523,0.629219117359307,-0.286071933630704,0.559593711502038,0.457275659953315
2.41775956423705,-1.0091303393563,-1.1687171526064,0.10078297129505,0.0508389595866991,-0.100131458123706,-0.0150563641364592,0.0390803059860573,0.0497792093129791,0.627150073945277,-0.286638881654889,0.557330798303994,0.462496829757676
2.12597954646699,-0.998563288139551,-1.12025914393277,0.123504317723404,0.0407945906176695,-0.111574713304238,-0.0139349276913669,0.0395384737370791,0.0487206784558394,0.625228838595964,-0.286833613746309,0.555222860326111,0.467485778162788
1.83214742861873,-0.992361922173873,-1.07837988741116,0.143297603473667,0.0308340637345521,-0.122566282158793,-0.0126009180853815,0.0398966170088402,0.0475499734785243,0.623498775687661,-0.286679419125138,0.553259129310438,0.472195429034121
1.55644396990078,-0.987992438647011,-1.03726633139994,0.160243211341098,0.0209263910988973,-0.133142886950685,-0.0110832140113077,0.0401554192830075,0.0462714276329769,0.621991525242586,-0.286194043468051,0.55144490736186,0.47657950664551
1.31494741523506,-0.97972957098374,-0.990760782668707,0.174602819141612,0.0110818802191932,-0.143281396218865,-0.00940898385889416,0.0403154606395979,0.0448893062171291,0.620723909783564,-0.285392246620299,0.549798757563293,0.480597981241998
1.11751720401014,-0.961003327738507,-0.933968444157664,0.186767793112672,0.00137231489403165,-0.152903416050832,-0.00760213079762274,0.040377731615164,0.0434083821557806,0.619695622584329,-0.284291081993454,0.548346874676675,0.48422269781696
0.965732811389568,-0.926424972322152,-0.864596167221265,0.197186694064504,-0.00807072743782198,-0.161894612805563,-0.00568235836173686,0.0403442395524451,0.0418343920114986,0.6188882014635,-0.282916317843748,0.547116323816973,0.487441770265958
0.851612876519135,-0.87322158618974,-0.783327793410889,0.206276073378882,-0.0170748610619318,-0.17013260630656,-0.00366504452451993,0.0402185116099463,0.040174255915938,0.618265800752516,-0.281308455038576,0.546128495056777,0.490261786835034
0.758076389285633,-0.802308327996546,-0.692847879383214,0.21432717058274,-0.0254584114644135,-0.177511858368367,-0.00156202830471183,0.0400058452473146,0.0384360335925634,0.617778156554554,-0.279526729278014,0.545393920468176,0.492707244131387
0.661864230044715,-0.719095009901321,-0.596132906070376,0.221429524554225,-0.0330713289854532,-0.183955135993471,0.000616755170973,0.0397131965450653,0.0366286986207542,0.617365892489909,-0.277649314837931,0.544909646418362,0.49481682469413
0.538360863178959,-0.633739679867455,-0.494999301518789,0.227433300895178,-0.0398414032658474,-0.189409170729253,0.00286106929822002,0.0393486328838087,0.0347618770871406,0.616967892348512,-0.275768315536462,0.544660247688313,0.496636356447373
0.366719619064211,-0.560412009978692,-0.389198862689886,0.231961354181228,-0.0458180625466285,-0.193828535248132,0.00515804257360204,0.0389203355547464,0.0328456885572537,0.616529867029789,-0.273979252534941,0.544622953235642,0.498208923093027
0.134363895818768,-0.514997740805228,-0.276149875666308,0.234469422630476,-0.0512010121320984,-0.19715365263775,0.00749019645766056,0.0384352401813527,0.0308907776178242,0.616012793430782,-0.272366295007451,0.544776037335987,0.499563718476451
-0.159480195447443,-0.511321560993085,-0.151692906737152,0.234346492007167,-0.0563385094726404,-0.199291240247603,0.00983427603084878,0.037897542573329,0.0289085531533975,0.615399793516256,-0.270986122308527,0.545108312587263,0.500706044705478
-0.502555903443572,-0.556843782550374,-0.0117595995616634,0.231038962387546,-0.061685237021908,-0.200106876476933,0.0121612033028223,0.0373074238408563,0.0269115625697748,0.614700116420594,-0.269854449388534,0.545627124319336,0.501610789581655
-0.872263343976475,-0.64897809180064,0.145819922945718,0.22416751702528,-0.0677202472252134,-0.199434948557849,0.0144372356998865,0.0366603964196207,0.0249138534446009,0.613949337143897,-0.268939412706258,0.546362264250109,0.502221146425832
-1.2419377256752,-0.773521711137321,0.319878531617639,0.213599162551855,-0.0748386470714535,-0.197104829982868,0.0166260690977721,0.0359476019481374,0.0229311545518973,0.613205653629613,-0.268165002829142,0.547363533853162,0.502453499761026
-1.58846911625691,-0.906662495503289,0.505003333771343,0.199449779217029,-0.0832454689362069,-0.19297879435376,0.0186913138066166,0.0351571813680991,0.0209807364302142,0.612542813316568,-0.267425019686629,0.548691368146894,0.502208067658137
-1.8987168736075,-1.02056426900847,0.691460820836427,0.182016500142541,-0.092887503590316,-0.186994847278557,0.0205986452034144,0.0342765165054664,0.0190808682220526,0.612040744199522,-0.266604192041912,0.550402901416408,0.501383065467686
-2.17283565731567,-1.09045953734646,0.866345929295771,0.161661388362759,-0.103448523453641,-0.179204187225732,0.0223170346459409,0.0332948363702467,0.0172498730495311,0.6117755895568,-0.265600399659337,0.552538029643895,0.499888769148171
-2.42324080655435,-1.1004145347911,1.01613730416806,0.138683656918243,-0.114408794645879,-0.169790144756249,0.0238187598723459,0.0322055497797491,0.0155049013896212,0.611811169213014,-0.264341779245256,0.555109805147723,0.497658136877631
-2.66830260366572,-1.04593352487697,1.13024548845678,0.113228590741976,-0.12514643577577,-0.159056604490961,0.025078321110647,0.0310077736276408,0.0138606676433852,0.612193365171118,-0.262794286644119,0.55810155784013,0.494652501948682
-2.92132776314866,-0.932823010092627,1.20438472581478,0.0852830897827384,-0.135046119282168,-0.147381827117439,0.0260708795132706,0.0297068108523511,0.0123284754853432,0.612947661460194,-0.260958305746869,0.561470717466033,0.490863077039189
-3.1784916029601,-0.772956233745697,1.24206820351788,0.0547866438270286,-0.14358091633291,-0.135147936168612,0.0267712281813194,0.0283136756742757,0.0109158266689129,0.614078773385598,-0.258856911116056,0.565156935984595,0.486310597615554
-3.41184472235502,-0.578943769841292,1.25299708048619,0.021837613075287,-0.150346317182395,-0.122670983446428,0.027154349465831,0.0268440395066992,0.0096267320708377,0.615570667758696,-0.25652191532629,0.569090762891278,0.48104569797917
-3.57251163383555,-0.35988438737687,1.24904164586189,-0.0130815178308318,-0.155046358800037,-0.110159163512524,0.0271981299420533,0.025317076126787,0.00846258133604295,0.617385721083523,-0.253984709433473,0.573199497911676,0.475151527799264
-3.60423527868199,-0.119329982037868,1.23993188005033,-0.0489626015185855,-0.157448331478661,-0.0977126695807989,0.0268879093453062,0.0237546026753935,0.00742322217057633,0.619463124209054,-0.251276833782176,0.577408170129243,0.468748541989798
-3.46260371319551,0.143916028669557,1.2301503492904,-0.084294145603139,-0.157331302077052,-0.0853606321319314,0.0262216256096976,0.022180704507615,0.00650785566201268,0.62171802579819,-0.248441255993554,0.581635455873296,0.461999821633093
-3.133949949496,0.43165612001432,1.21751603135008,-0.117274263041763,-0.154459342165183,-0.0731206739265651,0.0252137835664731,0.0206217512864038,0.0057154491317202,0.62404354379708,-0.245550319472087,0.585786870229604,0.455113654726973
-2.64671534001554,0.739349985366531,1.19397618506936,-0.146174938614486,-0.14861021246983,-0.061061586542304,0.0238965375581918,0.0191064035132287,0.00504453782937585,0.626317539060885,-0.242721652644617,0.589749576979108,0.448339130631207
-2.06772848777501,1.04888114334223,1.1487389797206,-0.169744506878605,-0.139674957657836,-0.0493463844161903,0.0223169403307264,0.0176649776625904,0.00449249797458338,0.628414806206467,-0.240121466235673,0.5933934498929,0.441951045272575
-1.48303118346645,1.32544941619071,1.07245651171685,-0.187495654359978,-0.127809205691722,-0.0382387806568392,0.0205307395245334,0.0163275568458426,0.00405457214921823,0.630223166300542,-0.237947555548141,0.596581482044402,0.436222714617761
-0.972509996590483,1.52219213965259,0.960696660420878,-0.199770709385429,-0.113576898744056,-0.0280713884939867,0.0185944077058064,0.0151206263236637,0.0037230213034641,0.631660069666148,-0.236391778822918,0.599189096324908,0.431389510929084
-0.588630074062803,1.59180307847346,0.81570345125917,-0.207573758863861,-0.0980128234849757,-0.0191877616334226,0.01655768536456,0.0140626777125186,0.00348672555282706,0.632685886533544,-0.235590944802713,0.601127799207179,0.427610622796678
-0.345030969977263,1.50138243346416,0.646171241480318,-0.212239413209228,-0.0825527967568379,-0.0118767618675613,0.0144586195041945,0.0131598496113095,0.00333140293532214,0.633310790389949,-0.235581494203699,0.60236678679031,0.424938885648663
-0.217264182209403,1.2464280010393,0.465387984491754,-0.215048238095327,-0.0688196454158709,-0.00631733943553708,0.0123221812476717,0.012402987400446,0.00324043242880665,0.633593441843852,-0.236274068976329,0.602946385620012,0.42330789131505
-0.153872464113166,0.858216005956429,0.288503631413899,-0.216901270452106,-0.0583023262124426,-0.00254625505384496,0.0101624337049346,0.0117673775423044,0.00319611445635974,0.633631364543939,-0.237458282922374,0.602978520020242,0.422542024101677
-0.0924217091552683,0.399075249974897,0.129522258836194,-0.218130090443614,-0.0520217707643363,-0.000454499300430633,0.00798727690045597,0.0112157570574205,0.00318111068458836,0.6335445988225,-0.23883730359077,0.602632785045029,0.422388103650186
0.0244610112393188,-0.053295462288505,-0.00162253051876208,-0.21846724305836,-0.0502987726574547,0.000186625643320382,0.0058042902329461,0.0107041543403116,0.00317977131630281,0.633455522397088,-0.240082091508688,0.602110921600082,0.42256020703723
0.236136901921516,-0.425335675928685,-0.10123830261908,-0.217161602617722,-0.052697829180091,-0.000326052220204974,0.00362614600456569,0.0101891713311238,0.00317907418341838,0.633468568684115,-0.2408914918978,0.601614811134381,0.422786566300649
0.556552587887335,-0.664318093615762,-0.172153999021313,-0.213195504293843,-0.0581519988593636,-0.00169138742624308,0.00147436047000787,0.00963492219092655,0.00316898698518614,0.633653823966328,-0.241044976703791,0.601314382740563,0.422848866248988
0.973658582914097,-0.748371357818794,-0.221556294094867,-0.205541797565002,-0.0652213469480867,-0.00365831258966013,-0.000619326039286361,0.0090180554618893,0.00314223848510663,0.634037786445969,-0.240436941625962,0.601322996321801,0.422607165763693
1.45479983665166,-0.687933369200527,-0.257339617673469,-0.193396854592339,-0.0724087714147336,-0.00605116584633796,-0.00261401930007307,0.0083299048700752,0.00309369109292664,0.634603029882957,-0.239086043621711,0.60168663744712,0.422007166439464
1.95583465252029,-0.518746237424324,-0.284785814319443,-0.176341031271646,-0.0784480702794082,-0.00876016670413866,-0.00446270872939299,0.00757562066160449,0.00301963443017425,0.635296462474977,-0.237120141483409,0.602388522422354,0.421070672599602
2.43124428064029,-0.289361154661067,-0.305001405809036,-0.154402985731009,-0.0824945080713855,-0.0117074765026172,-0.00611642881440626,0.00677090776985052,0.00291729621414047,0.636043605695998,-0.234744022546468,0.603365219800775,0.41987401332626
2.842494138769,-0.0484275046789028,-0.315446592910422,-0.128031642759128,-0.0841893521996357,-0.0148080901940506,-0.00752860195685695,0.00593748846849541,0.00278471838065713,0.63676478003729,-0.232199846777147,0.604527798774114,0.418521190108763
3.16291565757089,0.164259474927055,-0.311822155319446,-0.0980019429025948,-0.0836160931799453,-0.0179428076330361,-0.00865876988516557,0.00509846124159751,0.0026209638915217,0.637389134540642,-0.229728848360477,0.605782427119539,0.417117966999338
3.37902752862266,0.322261401556262,-0.290188284947249,-0.0652895760967931,-0.081189389629079,-0.0209512335322057,-0.00947522748016251,0.00427443382755239,0.00242649368569549,0.63786396036224,-0.227540092073479,0.607046931528518,0.415751244726942
3.48910162770665,0.413311743666357,-0.248341598816698,-0.0309462794403125,-0.0775174247345163,-0.0236422566488616,-0.00995640675784803,0.00348089975573441,0.00220352623479015,0.638158788322026,-0.225789584996498,0.608261569439776,0.414475918886892
3.50000623427548,0.43760112760648,-0.186035045149386,0.0040019107444321,-0.0732687612097024,-0.0258125135665282,-0.0100911286013274,0.00272696882601332,0.00195625238371321,0.638265250740171,-0.22457063020815,0.609393712121623,0.413309575708244
3.42351362776025,0.405029911913775,-0.104517490265111,0.0386221609294447,-0.0690615068436515,-0.0272636499414368,-0.00987800824295805,0.00201531748574655,0.00169087156617338,0.638194153813895,-0.22391435338969,0.610437154750645,0.412234234973008
3.2731093347245,0.332259869689308,-0.00626970851644046,0.0721079266167025,-0.0653809587671864,-0.0278159596331807,-0.00932435780522732,0.00134310515769236,0.00141547351830029,0.637971131070341,-0.223798356550697,0.61140720103391,0.411203557924683
3.06182847459162,0.239541945481789,0.104838330779269,0.103785266538117,-0.0625278505228812,-0.0273214902197027,-0.00844489183945322,0.000703561111242021,0.00113978626903588,0.637631942379931,-0.224161019539612,0.612332926221492,0.410153301633404
2.80093003249481,0.147343553321357,0.223664650385485,0.133101709948383,-0.0605993238604159,-0.0256773490117151,-0.00726045695702072,8.79252393255352e-05,0.000874792072878786,0.637217949220739,-0.224918470757074,0.613248365266267,0.409012724987213
2.49921119333115,0.0730612748914967,0.344652644310382,0.159605066952347,-0.0595032005509019,-0.0228341362360719,-0.00579692307251707,-0.000512587382731054,0.000632234646639851,0.636771940389056,-0.225980904018222,0.614184509852959,0.40771499213169
2.16345489087573,0.0280554304617138,0.46279628115463,0.182921048248215,-0.0590035178556862,-0.018795265306583,-0.00408429249651425,-0.00110512097476399,0.000424087638926577,0.63633452273639,-0.227265283031532,0.615163698295743,0.406204985938815
1.80003426036311,0.0155786766542067,0.573883102478087,0.202741144879244,-0.0587912481516569,-0.0136102420862556,-0.00215598153087696,-0.00169409480480071,0.000262060101962384,0.635941349437162,-0.228702496981112,0.616197498729833,0.404443334114612
1.4162721494128,0.0308750412210965,0.674166439680439,0.218825327802957,-0.0585648803938308,-0.00736836807329906,-4.81491674659534e-05,-0.00228087544752815,0.000157167051164611,0.635621352017596,-0.230238469302421,0.617288434318481,0.402406179089288
1.02010575038076,0.0640551998517522,0.76031323606058,0.231009868176759,-0.0580961300200169,-0.000194343392430108,0.00220102681243263,-0.00286418049959739,0.000119353493835965,0.635395971848219,-0.231830509340099,0.618434627783367,0.400081473023452
0.618364729599238,0.104513246845105,0.830003189466993,0.239204871451493,-0.0572591886180829,0.00775886503737161,0.00455210051057389,-0.00344095709278789,0.000157176102060673,0.63527926690784,-0.233441568568452,0.619635279585159,0.397463718337611
0.215380942086784,0.145037907529604,0.882645640057164,0.243376250684757,-0.0560173336777597,0.0163237354871563,0.00696500612125514,-0.0040073397042671,0.000277589104683312,0.63527875141231,-0.235035195340152,0.620894603558223,0.394549434453669
-0.187057478406617,0.184364087293851,0.919511044202144,0.243520518877992,-0.0543762245351928,0.0253361452106167,0.00939948996906889,-0.00455930749533186,0.000485888508172177,0.635396698007838,-0.236573171029153,0.622222588921844,0.391335176984315
-0.588949798715223,0.227494641172857,0.943152952303658,0.239643133367217,-0.0523228317244095,0.0346510914953095,0.0118153082302949,-0.00509280277662987,0.000785824691701808,0.635631402779827,-0.238016767631892,0.623632315553832,0.387818866383755
-0.991173993212859,0.283837073804025,0.956514693442763,0.23174516528241,-0.0497720739810755,0.0441510560262055,0.0141722497235431,-0.0056032773051573,0.00117983542930938,0.635977934896985,-0.239331582766274,0.62513466383543,0.384004051913676
-1.39426119041542,0.364020239958672,0.962257876532867,0.219820640239103,-0.0465386882438123,0.0537465451782475,0.0164300787511506,-0.00608483111628174,0.00166932343533165,0.636428220639165,-0.240494762239377,0.626731876654792,0.379905967437015
-1.79674937554031,0.476452954642276,0.96248750630295,0.203868238284158,-0.0423422231023579,0.0633718983945904,0.0185485231437669,-0.00652923567301259,0.00225491565319584,0.636970710770249,-0.24150233844131,0.628411772049078,0.375557690506213
-2.19385319608216,0.624226528637054,0.958535520312793,0.18391787630088,-0.0368447265175116,0.072978639829833,0.0204874537166921,-0.00692517042111193,0.00293666834431795,0.637590099290296,-0.242374187639812,0.630144363999598,0.371014418820177
-2.57769931756028,0.802949697876754,0.950572766307935,0.160062764607502,-0.0297147462164929,0.0825258075651005,0.022207356921234,-0.00725796778478196,0.00371419058129262,0.638267519324732,-0.243154674156954,0.631882157259248,0.366354087663941
-2.9396982930785,1.0007245044531,0.937282125458614,0.132478427429142,-0.0207022760363939,0.0919667083260971,0.0236700628814173,-0.00751005289604639,0.00458665316074861,0.638981487808771,-0.243908092278173,0.63356438009878,0.361673439761561
-3.27413604711842,1.20102638236206,0.916123228207768,0.101411906602991,-0.00969942243386844,0.101235361396593,0.0248395145515779,-0.0076620613883977,0.00555266350936206,0.639709668213891,-0.24470969124691,0.635123914624062,0.357080271754298
-3.58073155130448,1.3873469303364,0.884679321435939,0.0671402194857109,0.00323654329807355,0.110241000446975,0.0256822751820214,-0.00769437578407668,0.0066100453185799,0.640431269364041,-0.245634676576658,0.636494394292873,0.352684392789918
-3.86331404335399,1.54753817206619,0.842694368540527,0.0299226423872525,0.0179050679785362,0.118879495199021,0.0261675894913862,-0.00758866772769363,0.00775564779680988,0.641129688903444,-0.246748043469968,0.637614786987615,0.348590746384718
-4.12321788007271,1.67615555789578,0.793154220725274,-0.010007366355047,0.0340176357967957,0.127060364447514,0.0262671658715473,-0.00732905420881697,0.00898534709504256,0.641794771587624,-0.248097471302341,0.638430029797634,0.344897394812959
-4.34970270735338,1.77344456155901,0.740872502163533,-0.0523693184173434,0.0512597355625193,0.134732124364122,0.0259552824476853,-0.00690266735202039,0.0102943095391007,0.642423702801343,-0.249710324785928,0.638888469947156,0.341698789495808
-4.51326862197355,1.84127895521649,0.68898829321751,-0.0966815241891441,0.0693274523148465,0.141883054643191,0.0252100282346529,-0.00629973141263356,0.0116773854341373,0.643019478858389,-0.251594369644447,0.638938809465169,0.339092053476826
-4.56763723294643,1.87828126236431,0.635523178961186,-0.14208340258891,0.0879193525712002,0.148507238306249,0.0240162036007626,-0.00551349738820333,0.0131293368988845,0.643586576223708,-0.253740582989763,0.638529651036197,0.337182324857418
-4.46186420284352,1.87636247285223,0.571941375831514,-0.187228258893026,0.106686670415733,0.154546187382376,0.0223696452933529,-0.00454046727326867,0.0146446040273276,0.644124733047579,-0.256125779175986,0.63761353721805,0.336083160354942
-4.15911516128964,1.82060954433963,0.484813531441798,-0.230330504838858,0.125165629670141,0.159831588220906,0.0202818514746935,-0.0033812057728393,0.016216492905344,0.644622994383531,-0.258713013473675,0.636155369602113,0.335909388820526
-3.65471971867037,1.69381657836954,0.360842181696239,-0.269397028363824,0.142731859452137,0.16406149308876,0.0177832138086801,-0.0020417183272279,0.0178359583118924,0.64505670450242,-0.261449422812445,0.634142714986218,0.336762623100345
-2.9842920388748,1.48453164813259,0.193267143354883,-0.302589436276715,0.158617699753097,0.16683366601618,0.0149232814854774,-0.000534970531201731,0.0194904341074171,0.645389426991671,-0.264263592476517,0.631593742082423,0.338713132578424
-2.2169293910316,1.19507567145913,-0.0140764074425295,-0.328592892551413,0.172009835519506,0.167731245997905,0.0117673698413368,0.00111816714516128,0.0211632586674875,0.64557980358566,-0.267065655551742,0.628559010999628,0.341783882765394
-1.43681234631538,0.84552757861393,-0.247299225329153,-0.346858950363314,0.182206950938321,0.166425994136211,0.00839011062676313,0.00288925107745042,0.0228340448681581,0.645591123270351,-0.269752397080382,0.625115838468211,0.345942096773579
-0.721467992179165,0.471184018384412,-0.487049963546948,-0.357647701180953,0.188784608091762,0.162755874493994,0.0048675773690418,0.00474420887260083,0.0244799542113091,0.645400154452325,-0.272217685965749,0.621356698747959,0.35110116063808
-0.124483271306276,0.114098289124747,-0.714883679832169,-0.361874806623546,0.191705118797758,0.156747832579263,0.0012699648300193,0.00664665750704843,0.0260774727466754,0.645002086336517,-0.274366633891069,0.617374967463832,0.357132200141427
0.332737880501472,-0.187787369211555,-0.918491346873718,-0.360830882702736,0.191330772565773,0.148582583747897,-0.00234356361661211,0.00856183696386608,0.0276041248283112,0.644409982038136,-0.276130388615421,0.613251827643569,0.36388182068431
0.659470735978748,-0.409718594680579,-1.09347124781508,-0.355867188745501,0.188337341914762,0.138524397076617,-0.0059270539738533,0.0104601775362688,0.0290396597324338,0.643649280757676,-0.277477590238755,0.60904733864418,0.371191499883632
0.887416049355834,-0.544681792001819,-1.24146547407036,-0.348130103943994,0.1835594391498,0.126851339769353,-0.00944704043730078,0.0123196614415916,0.0303665384166636,0.642749585037281,-0.278418789709951,0.604797173006418,0.378914671125696
1.06027449641394,-0.60281455513489,-1.3667133749895,-0.338389000340311,0.177816056582566,0.113812071826218,-0.0128796359587223,0.0141265389202534,0.0315698554746415,0.641736445605753,-0.279002211394815,0.600515022375973,0.386928686347862
1.22374509956346,-0.606591004447492,-1.47332240416033,-0.32696625148559,0.171763127953104,0.0996135192326326,-0.0162064122178518,0.0158744348429317,0.0326369834299357,0.640625213281157,-0.27930242404897,0.596199429960478,0.395140141903657
1.4159644444267,-0.583802187870756,-1.56407843244186,-0.313765052890806,0.165805261159962,0.0844281413517855,-0.0194100687397338,0.0175622767884971,0.0335571917328578,0.639418002021275,-0.279405698411374,0.591842941706758,0.403483589180853
1.65877766857456,-0.560691093445632,-1.64015769818967,-0.298388691450965,0.16007689392183,0.0684085870007917,-0.0224708374614427,0.019191687563906,0.0343213753746207,0.638104042169915,-0.279395863175774,0.587441069328187,0.411915249867295
1.95269029069665,-0.55666780255524,-1.70093993730238,-0.280328700779775,0.154484198610275,0.0517047251254953,-0.0253644244225964,0.0207644930265666,0.0349219419352521,0.636663259707347,-0.279343055458034,0.582998730328447,0.420404366701398
2.27878822036323,-0.581282338508363,-1.7441188426324,-0.259168657349642,0.148788547073407,0.0344810575279853,-0.0280619112132434,0.022280856754985,0.0353528708485195,0.635072300848509,-0.279296438953754,0.578532749835383,0.42892485268476
2.60717416050478,-0.633916117102461,-1.76669669664657,-0.234736194570468,0.142706653963802,0.0169286061337543,-0.030531435472844,0.023738332760171,0.0356099191668282,0.633311347606034,-0.279281453090158,0.574070436514308,0.437449129469418
2.90713170035407,-0.705906046187326,-1.76652444797679,-0.20716201439134,0.136001642315803,-0.000735873287198587,-0.032740926517653,0.025131874241569,0.035690882831061,0.631369704013323,-0.27930189298129,0.569645301453685,0.445945041415349
3.15417791949456,-0.784131903242741,-1.74341140396104,-0.176852815417263,0.128545551737102,-0.0182839262447239,-0.034661000666696,0.0264546102118336,0.0355957838334014,0.629248787106595,-0.279346259264874,0.565291219489362,0.454375911033839
3.33287308453131,-0.855110555697365,-1.69952900583657,-0.144414909522299,0.120343438610852,-0.0354970019915481,-0.0362673392913939,0.0276990551635733,0.03532687919222,0.62696234779492,-0.279396463209363,0.561036296062779,0.462703042235233
3.43689672688128,-0.908770496664581,-1.63941408917373,-0.110563409590402,0.111518132517492,-0.0521900911644358,-0.0375422308869574,0.0288583630192151,0.0348884437264401,0.624534667057986,-0.279436092901073,0.556897888711986,0.47088922388932
3.46771034870941,-0.9410301319521,-1.56941592706042,-0.0760377233376148,0.102263228542858,-0.0682326149434427,-0.0384752365515974,0.0299272698245168,0.0342863301959007,0.621997744927789,-0.279455680357854,0.552880343984226,0.478901506842856
3.4324313480243,-0.954306409413198,-1.49637880619542,-0.0415343639791122,0.092780645004481,-0.083559962307558,-0.0390630969881811,0.0309024891922535,0.0335273673096457,0.619388328835809,-0.279453611042735,0.548976491886211,0.486712018275149
3.34138519396944,-0.955733861961403,-1.42602250064016,-0.00766263039430951,0.0832245428160576,-0.098170342539572,-0.0393090819600482,0.0317825151313562,0.0326187157854101,0.616745360558646,-0.279433011375198,0.545172662357545,0.494296591735326
3.20588354872944,-0.954106621390781,-1.36171300624661,0.0250763641940189,0.0736694395677464,-0.112107393771842,-0.0392220132910496,0.0325669850432752,0.031567327103853,0.614108074842275,-0.279396387888815,0.541455647754914,0.501632048779286
3.03679954599821,-0.957016629557371,-1.30401687276463,0.0562924305424912,0.0641079224814552,-0.125434416864734,-0.0388151693173671,0.0332558718535212,0.0303796180506701,0.611514638122894,-0.279340212955727,0.537819568479131,0.508693428843145
2.84400151410761,-0.968978039934779,-1.25104128825754,0.0856990867178542,0.0544720483024442,-0.138208081367681,-0.0381052117310654,0.0338487717074407,0.0290614055595081,0.609001085853966,-0.279251144009289,0.534271024139082,0.515452178929889
2.63627437776885,-0.990595439100433,-1.19929371733333,0.113103117052071,0.0446682800757178,-0.150458130093472,-0.0371112007122157,0.0343444733493315,0.0276180745022023,0.606600297320387,-0.279104854560695,0.530831591505277,0.521875829016296
2.42149122487126,-1.01866557298688,-1.14477528740652,0.138394595940105,0.0346160741837309,-0.162176848815007,-0.0358537121472549,0.0347408951206288,0.0260548996076599,0.604340757803069,-0.278867818293767,0.527537369286498,0.5279292683536
2.20675981535569,-1.04715623120776,-1.0840866675409,0.161538502016074,0.0242810643312074,-0.173319532287581,-0.034354046657474,0.0350353808132035,0.024377417702147,0.602245070887812,-0.278501714465276,0.524435832955956,0.533577292192078
1.99796595540648,-1.06885906455212,-1.01527967482829,0.182564781744719,0.0136950870208576,-0.183814737697263,-0.03263353023867,0.0352252615699638,0.0225917463522227,0.600328446474191,-0.277969649209084,0.521580673288804,0.538787742737398
1.79831322937098,-1.07724959366948,-0.938148228509885,0.20154882854344,0.00295864289819926,-0.19358025091179,-0.0307129621872292,0.0353085302195591,0.0207047714091775,0.598597499690255,-0.277243154699726,0.51902558672743,0.543534457839579
1.60642047149053,-1.06802023238563,-0.853841391832297,0.218575147922582,-0.00777360706362665,-0.202538572711337,-0.0286123423048991,0.0352844553987319,0.0187241772910618,0.597049798288982,-0.27630864874903,0.516818182705193,0.547799265255872
1.41540131513257,-1.03992673178003,-0.764039487074663,0.233686907730531,-0.0183192427160053,-0.210626350803708,-0.0263510320266335,0.0351539911498338,0.0166583526734866,0.595674616233485,-0.275171937956139,0.514995134551798,0.55157244993249
1.21392110057695,-0.994877183928361,-0.670034421012345,0.246836170683913,-0.0284991631260976,-0.217795094041979,-0.0239484166345613,0.0349198991206233,0.0145162454492582,0.594455114399838,-0.273859705297451,0.513579399259104,0.55485149313571
0.988986422187948,-0.937461245829457,-0.571872106019567,0.257853359172571,-0.038166756106437,-0.224003000374975,-0.0214249689852789,0.0345865695244606,0.0123072549771734,0.593371724846147,-0.272417566080413,0.51257987077617,0.557638361233351
0.729490313527813,-0.874155846551458,-0.467824165449354,0.266448393725984,-0.0472307423998919,-0.229199855430155,-0.0188034602207861,0.0341595820319289,0.0100412406981478,0.592406110630644,-0.270904892502914,0.511993295937181,0.559936071548208
0.429700954008296,-0.812355804397341,-0.354589072048457,0.272247000938498,-0.0556692014861863,-0.233310295315481,-0.0161099832474637,0.0336450823124985,0.00772868994441958,0.591544978595435,-0.269387065271665,0.511807915560269,0.561745320347842
0.0921772032779737,-0.759371358091997,-0.228157417431154,0.274859042599764,-0.0635337381301833,-0.236222401460715,-0.0133744530297724,0.0330490676144167,0.00538102646053861,0.590783078319553,-0.267926300254056,0.512008178182113,0.563061699530415
-0.270721918773052,-0.721488985018639,-0.0849593432131079,0.273968969897122,-0.0709439406772868,-0.237786358961772,-0.010630312967288,0.0323766792203794,0.00301098265842617,0.590124772678022,-0.266572660416,0.512579693344248,0.563873946340462
-0.637887631948536,-0.703097169717896,0.0768711312124983,0.269428573018348,-0.0780727722825198,-0.237825173719611,-0.00791332525271061,0.0316315956555803,0.000632924995019253,0.589583886194125,-0.265357094944441,0.51351334733198,0.564163536055624
-0.983905849286862,-0.705756110860834,0.256355837096925,0.261322256487005,-0.0851229395169638,-0.2361574125759,-0.00525957110518384,0.0308156170965829,-0.00173698793645831,0.589182096281044,-0.264288272525544,0.514807514914224,0.563905478795143
-1.28662246701205,-0.727248235332336,0.448986456359451,0.249972265780345,-0.09229386207948,-0.232629074806455,-0.00270309849384709,0.0299285330886007,-0.00408092037337008,0.588946480272495,-0.263354228516495,0.516467694635585,0.563069901606297
-1.53541632657824,-0.761172099756971,0.646599888597927,0.235864722687227,-0.0997418645864768,-0.227149516779504,-0.000273913551509224,0.0289683544552709,-0.00637981333129988,0.588906887207149,-0.262528301215617,0.518503647826506,0.56162401698239
-1.73602772944909,-0.797502288590128,0.838009533310253,0.219510153281925,-0.107541137359763,-0.219724843367799,0.00200296082833654,0.0279319394455397,-0.00861418513203639,0.589093703061556,-0.261777352149376,0.520924871972839,0.559534185439072
-1.90881819886907,-0.82391270624109,1.01049440785314,0.201288574515168,-0.115654113165469,-0.210480697359818,0.004106954467322,0.0268159631929135,-0.0107652128356745,0.589536280131706,-0.261069945992804,0.523735553721343,0.556767929640334
-2.0805551975002,-0.827640282395879,1.15197564089419,0.181344358408156,-0.123917778940204,-0.199666720813918,0.00602011913193862,0.0256181037323852,-0.0128159499265432,0.590261792624528,-0.260382819826144,0.526930129583065,0.553295980325755
-2.27257497133453,-0.797565517639418,1.25392180373389,0.159581358438816,-0.132049708771931,-0.187635607288614,0.00772474771617347,0.0243382662938245,-0.0147524615670558,0.591293700789808,-0.259704639759521,0.530490382351351,0.549094904116208
-2.48959330618542,-0.725814451722177,1.31446899222471,0.13577316792605,-0.139672509450289,-0.174792027006657,0.00920152034799781,0.0229796552027134,-0.0165645997385322,0.592648826004839,-0.259036693279566,0.534384535019577,0.544151200772161
-2.7139179260281,-0.608610371973102,1.33996775158526,0.109758262639817,-0.146350534400316,-0.161518216985443,0.0104291775008271,0.0215495399834604,-0.0182461509584927,0.5943326354731,-0.258391162758126,0.538568215989292,0.538467271193166
-2.90830186330956,-0.446725052120646,1.34349013885939,0.0816498145679622,-0.151633112352335,-0.148099301231056,0.011386217886866,0.0200596217496971,-0.0197942385495752,0.596333350670102,-0.257788583391455,0.542986666739631,0.532068661823435
-3.02691393947321,-0.245440032572847,1.34070230291812,0.0519763864288824,-0.155099838607353,-0.134676712720005,0.0120543488918503,0.0185259569948987,-0.0212081186193305,0.598616316068589,-0.257256344447696,0.547577283109644,0.525011236451316
-3.03081097414108,-0.0132517424984561,1.34489953204795,0.021690412735645,-0.15639919831426,-0.12124707724301,0.0124226828876729,0.0169684618102906,-0.0224877375691455,0.601120442479847,-0.256829537429653,0.552271560533762,0.517386630830471
-2.90308990135062,0.240624428037128,1.36309559984984,-0.00797644076697951,-0.155268235718117,-0.107705475281358,0.0124912527475162,0.0154101246401287,-0.0236325003317674,0.603758428634863,-0.256554400888901,0.556995615262838,0.509324536827817
-2.65812714194571,0.508104113643647,1.39442227309566,-0.0357798751086272,-0.151530493841263,-0.0939162596144663,0.0122724711681382,0.0138761309923318,-0.0246406090062465,0.606421798891658,-0.256493157396545,0.56166892946716,0.500990893838372
-2.33984752072049,0.781222759623621,1.43124636847048,-0.0607670975471242,-0.145089760306477,-0.0797862901044717,0.0117897363048594,0.0123930297215931,-0.0255091217548412,0.608990617635785,-0.256727299484915,0.56620224711178,0.492581502592555
-2.00833130342502,1.04812242239151,1.46231283603979,-0.0825053407930177,-0.135948935227952,-0.0653168677797566,0.0110733741131587,0.010987836243921,-0.0262346375442623,0.611346423938971,-0.257355076355723,0.570497226624179,0.484310674077179
-1.72041391876817,1.28890000369299,1.47637667148997,-0.10114641602915,-0.12426972392908,-0.0506217939399439,0.0101551153290479,0.00968674294813581,-0.0268143308528608,0.613386129512085,-0.258479118763783,0.574451215028356,0.476394587330426
